timestamp,accel_x,accel_y,accel_z
2024-08-20 11:34:59,0.963216,-1.513444,1.428091
2024-08-20 11:34:59,-1.0355,1.725719,1.680304
2024-08-20 11:34:59,1.327844,1.171302,-1.130411
2024-08-20 11:35:00,0.500739,-0.891263,0.587222
2024-08-20 11:35:00,-0.326156,0.453693,1.639188
2024-08-20 11:35:00,-1.837169,-1.333318,0.290108
2024-08-20 11:35:00,1.863145,-1.918523,1.49426
2024-08-20 11:35:00,-1.506446,-0.122981,1.205534
2024-08-20 11:35:00,-0.682732,1.020646,-0.492364
2024-08-20 11:35:00,1.066253,0.362464,0.087166
2024-08-20 11:35:00,-0.328489,1.187729,0.363964
2024-08-20 11:35:00,-1.757171,-1.22546,-0.002617
2024-08-20 11:35:00,1.092758,0.777668,1.907543
2024-08-20 11:35:01,1.861024,-1.760049,0.564804
2024-08-20 11:35:01,1.899421,-1.522688,-0.54475
2024-08-20 11:35:01,-0.25008,1.13786,-0.884361
2024-08-20 11:35:01,-0.127353,-0.534578,0.523244
2024-08-20 11:35:01,-1.245602,0.575007,-1.719642
2024-08-20 11:35:01,-0.352016,1.086117,1.417252
2024-08-20 11:35:01,1.244137,1.76672,-0.941101
2024-08-20 11:35:01,0.094378,1.420808,1.930222
2024-08-20 11:35:01,-0.682116,-1.255099,0.241202
2024-08-20 11:35:02,1.788241,0.487467,1.125169
2024-08-20 11:35:02,-0.316529,-0.987461,1.932491
2024-08-20 11:35:02,1.257825,-1.355962,0.192998
2024-08-20 11:35:02,-1.609417,-1.596615,1.622654
2024-08-20 11:35:02,-1.560054,0.643872,-1.253038
2024-08-20 11:35:02,-1.045247,-0.66533,0.442252
2024-08-20 11:35:02,0.755315,1.552446,-1.480581
2024-08-20 11:35:02,1.535721,0.163245,1.946228
2024-08-20 11:35:02,0.318726,-0.647091,0.271256
2024-08-20 11:35:02,-0.430778,-1.219773,-1.949878
2024-08-20 11:35:03,-0.367337,0.812099,1.916242
2024-08-20 11:35:03,0.091597,-1.735582,-1.622453
2024-08-20 11:35:03,0.732607,-1.400762,-1.64296
2024-08-20 11:35:03,-0.0719,-1.596046,1.564497
2024-08-20 11:35:03,-0.305558,-0.433828,1.71672
2024-08-20 11:35:03,-1.496535,0.890763,1.768744
2024-08-20 11:35:03,-1.385331,-0.151562,1.847524
2024-08-20 11:35:03,-0.355034,1.05696,-0.245363
2024-08-20 11:35:03,1.283333,-1.858505,0.742925
2024-08-20 11:35:03,-1.231363,-1.682841,-1.88125
2024-08-20 11:35:04,-1.89851,-0.188454,1.975618
2024-08-20 11:35:04,1.206603,-1.347043,0.105154
2024-08-20 11:35:04,-1.228365,1.395312,0.265106
2024-08-20 11:35:04,0.011563,1.143156,-0.417505
2024-08-20 11:35:04,0.270206,-1.277083,-1.711172
2024-08-20 11:35:04,1.575028,0.001171,-0.667469
2024-08-20 11:35:04,0.414898,0.093375,0.93908
2024-08-20 11:35:04,-1.593303,0.545312,-0.301177
2024-08-20 11:35:04,0.007091,-1.30025,1.710493
2024-08-20 11:35:05,1.087294,-1.650317,-0.493324
2024-08-20 11:35:05,-1.57452,0.917651,0.402417
2024-08-20 11:35:05,1.702328,-1.122405,-0.684046
2024-08-20 11:35:05,-1.602096,1.195694,-0.849855
2024-08-20 11:35:05,-0.232418,-1.220247,1.697744
2024-08-20 11:35:05,-0.990388,-0.078564,0.450873
2024-08-20 11:35:05,-0.687155,-0.137745,-0.826154
2024-08-20 11:35:05,-0.381951,0.081319,0.789527
2024-08-20 11:35:05,-1.79369,0.033329,0.230948
2024-08-20 11:35:05,-0.148131,-0.704572,-0.143984
2024-08-20 11:35:06,-1.705273,0.921933,-0.877103
2024-08-20 11:35:06,-0.474048,-1.370641,0.762086
2024-08-20 11:35:06,1.095989,-0.47523,-0.144383
2024-08-20 11:35:06,-0.032575,-0.103651,0.966986
2024-08-20 11:35:06,-1.651495,-0.618562,0.396248
2024-08-20 11:35:06,-1.060309,0.491671,-0.472933
2024-08-20 11:35:06,0.542413,-0.645333,-0.004378
2024-08-20 11:35:06,1.448457,-0.778713,0.140444
2024-08-20 11:35:06,-0.584761,-1.292886,0.36927
2024-08-20 11:35:07,0.916457,-1.792823,-0.243322
2024-08-20 11:35:07,-0.324173,0.753136,1.94241
2024-08-20 11:35:07,0.190151,1.991471,0.346569
2024-08-20 11:35:07,-0.866778,1.135146,-0.775176
2024-08-20 11:35:07,-0.964389,-0.165307,-1.416444
2024-08-20 11:35:07,1.936677,0.578665,1.027696
2024-08-20 11:35:07,0.178709,-0.85662,-0.453023
2024-08-20 11:35:07,-1.435609,-1.401664,1.486638
2024-08-20 11:35:07,-1.693615,-0.88587,1.621435
2024-08-20 11:35:07,-1.365215,0.061057,1.473551
2024-08-20 11:35:08,-1.361382,-1.776478,0.191294
2024-08-20 11:35:08,-0.278701,-0.140057,-1.109064
2024-08-20 11:35:08,-0.528531,-0.434907,1.173174
2024-08-20 11:35:08,0.496137,1.447675,-0.786969
2024-08-20 11:35:08,-0.834696,0.149642,-0.87639
2024-08-20 11:35:08,1.928229,-1.983095,1.204194
2024-08-20 11:35:08,-0.588336,-1.867592,-1.088697
2024-08-20 11:35:08,-1.363144,1.713714,-1.209071
2024-08-20 11:35:08,0.449158,-0.682922,0.576489
2024-08-20 11:35:08,-1.493112,-1.146814,-1.9599
2024-08-20 11:35:09,0.669075,1.169671,-1.583878
2024-08-20 11:35:09,-0.997776,-1.177248,1.189822
2024-08-20 11:35:09,0.189251,1.737986,0.550126
2024-08-20 11:35:09,0.117366,-0.068411,-0.520651
2024-08-20 11:35:09,1.421387,-0.561319,1.74976
2024-08-20 11:35:09,0.387507,1.099866,0.269938
2024-08-20 11:35:09,0.912206,1.00661,1.498572
2024-08-20 11:35:09,-1.399025,-1.75759,0.923397
2024-08-20 11:35:09,-0.016104,-0.279642,1.217533
2024-08-20 11:35:10,1.675575,1.229289,1.746727
2024-08-20 11:35:10,-0.688718,1.043793,1.545405
2024-08-20 11:35:10,-0.931411,-0.504646,-1.893388
2024-08-20 11:35:10,-0.236665,1.132665,-1.092077
2024-08-20 11:35:10,-1.033031,0.578951,0.13933
2024-08-20 11:35:10,-0.064789,-1.021553,-0.475981
2024-08-20 11:35:10,-1.564884,-1.789059,1.191258
2024-08-20 11:35:10,-1.034512,1.590886,-0.387076
2024-08-20 11:35:10,-0.793188,-0.077492,1.232056
2024-08-20 11:35:10,-1.219349,-0.18505,1.973916
2024-08-20 11:35:11,-0.299657,0.821572,1.395171
2024-08-20 11:35:11,-1.950233,-1.664554,-0.754926
2024-08-20 11:35:11,0.740107,0.748075,-0.26478
2024-08-20 11:35:11,1.588253,-1.996149,-0.209211
2024-08-20 11:35:11,-0.146585,-0.626027,-1.569476
2024-08-20 11:35:11,0.73147,-0.456526,1.358014
2024-08-20 11:35:11,1.827942,0.952289,-0.892563
2024-08-20 11:35:11,-1.450877,-1.008094,-0.660406
2024-08-20 11:35:11,1.505212,-1.130936,1.293287
2024-08-20 11:35:12,-1.090248,-1.24717,-1.171157
2024-08-20 11:35:12,1.169864,1.144579,-1.69414
2024-08-20 11:35:12,1.113948,1.69857,1.638016
2024-08-20 11:35:12,-0.665039,-0.398352,-0.1348
2024-08-20 11:35:12,1.01627,-0.446739,1.915414
2024-08-20 11:35:12,-0.966044,-0.440995,-0.528102
2024-08-20 11:35:12,1.493002,-1.315279,0.496314
2024-08-20 11:35:12,1.411075,-0.4991,1.934689
2024-08-20 11:35:12,-1.730162,-0.996038,-0.731369
2024-08-20 11:35:12,-0.754517,1.681654,-0.180942
2024-08-20 11:35:13,-0.996839,-0.85992,-0.393469
2024-08-20 11:35:13,-1.994604,-1.168321,0.53125
2024-08-20 11:35:13,1.46472,-1.629948,0.537715
2024-08-20 11:35:13,-0.7402,-0.83715,1.177789
2024-08-20 11:35:13,-0.855713,-1.015101,-0.604702
2024-08-20 11:35:13,-0.868934,0.655828,-1.287618
2024-08-20 11:35:13,1.130076,1.214713,-1.707015
2024-08-20 11:35:13,0.02351,0.838577,0.209439
2024-08-20 11:35:13,-1.066438,0.949553,-1.864538
2024-08-20 11:35:13,-0.940641,0.023419,-1.885966
2024-08-20 11:35:14,0.883691,0.172695,-0.33788
2024-08-20 11:35:14,1.696876,-1.015147,-1.577184
2024-08-20 11:35:14,-0.902405,0.77823,-0.385607
2024-08-20 11:35:14,1.727227,-1.117848,-1.936977
2024-08-20 11:35:14,1.557978,-0.156976,-0.962485
2024-08-20 11:35:14,1.709355,0.092382,-1.950915
2024-08-20 11:35:14,-0.541527,-1.245114,0.188695
2024-08-20 11:35:14,1.034582,0.131563,-1.274142
2024-08-20 11:35:14,0.978559,-1.684866,1.327726
2024-08-20 11:35:15,0.385576,-0.576488,0.177753
2024-08-20 11:35:15,-1.802788,-0.502208,1.915342
2024-08-20 11:35:15,1.131868,0.85487,-1.405621
2024-08-20 11:35:15,0.155283,1.32273,1.265961
2024-08-20 11:35:15,0.547211,0.990904,-0.743708
2024-08-20 11:35:15,1.724159,-0.853716,0.77702
2024-08-20 11:35:15,1.96134,1.412006,1.830205
2024-08-20 11:35:15,0.19009,0.034519,-0.225845
2024-08-20 11:35:15,-0.726104,0.940387,-1.324558
2024-08-20 11:35:15,-1.644247,1.151186,-1.634832
2024-08-20 11:35:16,-1.914143,-0.665246,1.223165
2024-08-20 11:35:16,1.486678,-0.909623,-0.163242
2024-08-20 11:35:16,-1.928216,0.591794,-1.358862
2024-08-20 11:35:16,1.598949,1.076787,-0.439578
2024-08-20 11:35:16,-1.914011,0.204606,0.706749
2024-08-20 11:35:16,0.624212,-0.495818,-0.235073
2024-08-20 11:35:16,0.564776,-0.031074,0.992467
2024-08-20 11:35:16,-0.099433,-0.058401,0.263614
2024-08-20 11:35:16,-0.510854,-0.265742,-1.780579
2024-08-20 11:35:17,-1.126183,0.511438,1.979866
2024-08-20 11:35:17,0.620083,-1.482878,0.792971
2024-08-20 11:35:17,0.40393,0.210747,-0.62647
2024-08-20 11:35:17,-0.840225,1.637223,-0.2372
2024-08-20 11:35:17,1.94327,-0.357335,1.241989
2024-08-20 11:35:17,0.635789,0.394549,-1.195987
2024-08-20 11:35:17,-1.192335,-0.301034,0.164617
2024-08-20 11:35:17,1.154287,1.533746,-0.728843
2024-08-20 11:35:17,-0.062839,-0.364565,1.070133
2024-08-20 11:35:17,0.203447,0.895025,-0.192193
2024-08-20 11:35:18,-0.752219,-1.558676,-1.310423
2024-08-20 11:35:18,1.706593,0.347972,-0.269217
2024-08-20 11:35:18,1.238071,-1.864879,0.273095
2024-08-20 11:35:18,-0.196127,-0.088476,0.962325
2024-08-20 11:35:18,-0.413976,-1.255458,-1.034082
2024-08-20 11:35:18,1.602087,0.495067,-1.138763
2024-08-20 11:35:18,1.910077,0.395023,0.634337
2024-08-20 11:35:18,-1.56479,-0.303687,1.880765
2024-08-20 11:35:18,-1.33034,0.340404,0.155443
2024-08-20 11:35:18,-0.81614,0.7674,0.296694
2024-08-20 11:35:19,1.095572,0.21081,0.407238
2024-08-20 11:35:19,0.579115,0.443178,0.433449
2024-08-20 11:35:19,0.403181,-0.062177,-1.36826
2024-08-20 11:35:19,0.210089,0.316574,0.420936
2024-08-20 11:35:19,0.281186,-0.678365,1.076609
2024-08-20 11:35:19,-0.389234,-0.683272,-1.378124
2024-08-20 11:35:19,1.78512,-1.686283,0.581401
2024-08-20 11:35:19,-0.393284,-0.810452,0.716199
2024-08-20 11:35:19,1.415573,-1.752502,-0.470394
2024-08-20 11:35:20,-0.848459,0.034766,-0.287425
2024-08-20 11:35:20,-0.737139,1.953396,1.148243
2024-08-20 11:35:20,-1.500415,0.217369,0.517278
2024-08-20 11:35:20,1.368198,0.803772,0.612805
2024-08-20 11:35:20,1.512617,1.382398,1.983235
2024-08-20 11:35:20,0.451647,0.928865,-1.294252
2024-08-20 11:35:20,0.310582,0.040729,-1.427118
2024-08-20 11:35:20,-1.177966,-0.788699,1.864494
2024-08-20 11:35:20,1.914786,1.619921,-0.553047
2024-08-20 11:35:20,-0.109031,1.195825,-0.712974
2024-08-20 11:35:21,1.181368,-0.258185,-0.117674
2024-08-20 11:35:21,-0.04464,1.214581,-0.171924
2024-08-20 11:35:21,1.237553,1.288166,1.447721
2024-08-20 11:35:21,0.349143,0.821554,0.317246
2024-08-20 11:35:21,-0.914401,1.156448,-0.592422
2024-08-20 11:35:21,1.51805,-0.056578,0.315642
2024-08-20 11:35:21,0.929306,1.190719,-0.429918
2024-08-20 11:35:21,0.394741,1.456284,1.421453
2024-08-20 11:35:21,-0.810854,1.968152,-0.37601
2024-08-20 11:35:22,1.038546,0.457762,-0.192631
2024-08-20 11:35:22,-1.758265,0.596869,-1.637274
2024-08-20 11:35:22,-1.689196,-0.43265,1.059613
2024-08-20 11:35:22,1.035988,1.828474,0.795424
2024-08-20 11:35:22,0.124655,-0.529985,-0.479164
2024-08-20 11:35:22,-1.124668,-0.60335,0.968275
2024-08-20 11:35:22,-1.749556,1.831821,-1.984104
2024-08-20 11:35:22,-0.236802,1.611082,-1.409299
2024-08-20 11:35:22,-1.452364,-1.660906,1.610014
2024-08-20 11:35:22,-0.258653,-0.585505,0.483117
2024-08-20 11:35:23,-0.921046,0.80257,-1.594747
2024-08-20 11:35:23,-0.600101,-1.173747,-1.503346
2024-08-20 11:35:23,0.58621,-1.351594,1.608255
2024-08-20 11:35:23,-0.545551,1.444928,-0.163419
2024-08-20 11:35:23,-0.493406,-1.535604,-1.267426
2024-08-20 11:35:23,0.981081,0.407833,1.592425
2024-08-20 11:35:23,0.725335,0.783259,1.49825
2024-08-20 11:35:23,-1.142875,-0.310497,-1.419696
2024-08-20 11:35:23,-1.755976,-1.561849,-0.658282
2024-08-20 11:35:23,1.417247,-0.605528,1.465234
2024-08-20 11:35:24,0.156683,1.079713,0.775421
2024-08-20 11:35:24,1.4752,1.130887,-0.442975
2024-08-20 11:35:24,-0.199266,0.144279,-0.583542
2024-08-20 11:35:24,0.055663,-0.486982,-0.290368
2024-08-20 11:35:24,0.941018,-1.94787,0.651023
2024-08-20 11:35:24,-1.720079,-0.692097,-0.621546
2024-08-20 11:35:24,1.665837,-0.926922,-0.389172
2024-08-20 11:35:24,-0.234247,0.360925,0.528621
2024-08-20 11:35:24,0.179052,0.341959,1.0714
2024-08-20 11:35:25,0.368876,-0.798227,-0.868225
2024-08-20 11:35:25,1.127924,1.940258,-1.007628
2024-08-20 11:35:25,-0.474125,0.927616,0.829964
2024-08-20 11:35:25,-1.208825,1.739213,-1.11838
2024-08-20 11:35:25,-1.240333,-1.61932,-1.794799
2024-08-20 11:35:25,-1.935449,1.405414,1.978872
2024-08-20 11:35:25,0.88661,-1.288556,-1.121853
2024-08-20 11:35:25,-0.440984,-1.704788,1.094752
2024-08-20 11:35:25,-1.766359,0.024598,-1.201615
2024-08-20 11:35:25,1.448726,1.872977,1.179403
2024-08-20 11:35:26,-1.012526,0.175323,-0.539707
2024-08-20 11:35:26,0.008558,0.757488,-1.022144
2024-08-20 11:35:26,-0.404223,1.212351,1.008464
2024-08-20 11:35:26,0.235157,1.01691,0.478398
2024-08-20 11:35:26,-1.70443,-1.65613,1.057322
2024-08-20 11:35:26,-1.223738,1.390937,-1.181522
2024-08-20 11:35:26,-0.456468,-0.778991,0.059098
2024-08-20 11:35:26,1.120626,-1.512213,1.504246
2024-08-20 11:35:26,-0.760343,-0.618646,1.881352
2024-08-20 11:35:27,-1.999404,-1.7506,-0.224007
2024-08-20 11:35:27,-1.178336,-0.606753,-1.452021
2024-08-20 11:35:27,-0.525865,1.182025,0.150312
2024-08-20 11:35:27,-1.484917,-1.876426,0.616209
2024-08-20 11:35:27,-1.349189,-1.90453,1.16894
2024-08-20 11:35:27,-0.978024,1.281531,1.478347
2024-08-20 11:35:27,1.70543,1.241807,-1.156306
2024-08-20 11:35:27,0.659262,0.197237,-0.193519
2024-08-20 11:35:27,1.056411,-1.7693,0.346565
2024-08-20 11:35:27,0.338023,-0.445754,0.334464
2024-08-20 11:35:28,-0.179145,0.162478,1.522194
2024-08-20 11:35:28,-0.811943,-0.556326,-0.92909
2024-08-20 11:35:28,0.709624,0.939388,-0.684268
2024-08-20 11:35:28,1.613589,-0.305393,1.368636
2024-08-20 11:35:28,0.300975,1.71889,1.56304
2024-08-20 11:35:28,1.01627,-0.92965,0.476416
2024-08-20 11:35:28,0.885718,-1.985568,1.067362
2024-08-20 11:35:28,1.751253,-1.197967,-0.866748
2024-08-20 11:35:28,-1.823204,0.211823,1.664059
2024-08-20 11:35:28,0.322272,1.094351,1.606792
2024-08-20 11:35:29,0.224858,-0.960244,0.829372
2024-08-20 11:35:29,-0.086196,-0.845433,-1.690123
2024-08-20 11:35:29,-1.168327,0.693496,1.527508
2024-08-20 11:35:29,-0.177066,1.362045,0.464692
2024-08-20 11:35:29,1.665011,-1.754732,-1.131355
2024-08-20 11:35:29,1.890485,-1.00964,-0.510692
2024-08-20 11:35:29,1.925217,-1.599765,-1.825512
2024-08-20 11:35:29,0.612405,0.629563,-0.633522
2024-08-20 11:35:29,0.129999,-1.235463,1.34627
2024-08-20 11:35:30,-0.736479,1.686039,1.848579
2024-08-20 11:35:30,-0.57237,1.755731,1.325999
2024-08-20 11:35:30,1.186558,-1.82892,1.589303
2024-08-20 11:35:30,0.741778,0.745686,0.737616
2024-08-20 11:35:30,-1.860174,-1.662508,0.549009
2024-08-20 11:35:30,0.453158,0.949332,0.628612
2024-08-20 11:35:30,1.266408,0.268216,1.784366
2024-08-20 11:35:30,0.513213,-0.045752,-1.799152
2024-08-20 11:35:30,-1.42115,-0.085382,0.057453
2024-08-20 11:35:30,-0.49558,-1.936943,-0.543089
2024-08-20 11:35:31,-0.444243,-0.560191,1.931511
2024-08-20 11:35:31,-0.448674,-0.54269,-1.303691
2024-08-20 11:35:31,-0.857602,-1.218266,-0.587753
2024-08-20 11:35:31,-0.745886,0.030319,0.253926
2024-08-20 11:35:31,-0.795262,-1.810097,0.93147
2024-08-20 11:35:31,-1.825693,-1.829688,0.647899
2024-08-20 11:35:31,-1.922797,-1.337482,1.417465
2024-08-20 11:35:31,1.693926,-0.901548,-1.045064
2024-08-20 11:35:31,-0.382728,0.017171,1.913653
2024-08-20 11:35:32,0.755124,0.542912,-1.014515
2024-08-20 11:35:32,-1.393787,-0.722496,0.943046
2024-08-20 11:35:32,0.682082,-1.502429,1.468644
2024-08-20 11:35:32,-0.058511,1.170657,1.384799
2024-08-20 11:35:32,0.140192,0.878364,-0.008047
2024-08-20 11:35:32,-1.909241,1.96464,-1.239156
2024-08-20 11:35:32,-1.05075,1.909351,-0.052534
2024-08-20 11:35:32,1.256459,-1.353098,0.213874
2024-08-20 11:35:32,0.934632,-0.098716,0.958458
2024-08-20 11:35:32,1.712719,-0.922937,0.415886
2024-08-20 11:35:33,0.622552,-0.588051,-1.874746
2024-08-20 11:35:33,0.250704,-1.556339,-1.988338
2024-08-20 11:35:33,-0.475944,-0.484862,0.777801
2024-08-20 11:35:33,-1.195462,-0.288616,0.924472
2024-08-20 11:35:33,0.255464,0.23651,0.957731
2024-08-20 11:35:33,0.942721,1.384502,1.46894
2024-08-20 11:35:33,0.400985,-1.481722,0.880697
2024-08-20 11:35:33,1.986383,-0.650437,-0.566898
2024-08-20 11:35:33,1.070654,0.621007,1.190601
2024-08-20 11:35:34,0.794185,0.56807,-1.233908
2024-08-20 11:35:34,-1.551641,0.707344,-1.26595
2024-08-20 11:35:34,0.906741,1.671358,1.434405
2024-08-20 11:35:34,-0.160025,-0.946669,-0.884257
2024-08-20 11:35:34,0.109084,-0.819841,-0.478374
2024-08-20 11:35:34,-0.726892,-1.804948,0.681407
2024-08-20 11:35:34,1.626018,1.317785,-1.122414
2024-08-20 11:35:34,-0.474034,-1.755603,-1.056773
2024-08-20 11:35:34,1.974527,1.37339,1.146416
2024-08-20 11:35:34,-1.697169,0.68833,1.969299
2024-08-20 11:35:35,-1.991135,-0.65709,1.227926
2024-08-20 11:35:35,-0.665951,1.264407,1.40295
2024-08-20 11:35:35,0.325676,-0.013507,-1.627829
2024-08-20 11:35:35,0.469525,-1.992485,0.527936
2024-08-20 11:35:35,0.432148,1.42489,-1.012579
2024-08-20 11:35:35,1.236909,0.044083,1.06657
2024-08-20 11:35:35,-0.146358,0.207695,1.513732
2024-08-20 11:35:35,-0.672465,1.802553,1.178412
2024-08-20 11:35:35,1.493535,1.231631,1.316574
2024-08-20 11:35:35,0.348434,-0.379345,-0.237667
2024-08-20 11:35:36,-0.974141,1.006107,0.969746
2024-08-20 11:35:36,0.279202,0.955133,-1.918611
2024-08-20 11:35:36,-1.472059,-1.241119,1.222538
2024-08-20 11:35:36,1.775591,-0.326762,0.523631
2024-08-20 11:35:36,0.285667,-1.052498,-1.722192
2024-08-20 11:35:36,1.218327,0.894265,-1.780967
2024-08-20 11:35:36,0.618336,-1.713721,0.20451
2024-08-20 11:35:36,-0.374385,-1.455572,0.700484
2024-08-20 11:35:36,1.782839,0.645777,-1.052251
2024-08-20 11:35:37,-0.216421,1.015275,1.420105
2024-08-20 11:35:37,-1.626248,0.107085,-0.623656
2024-08-20 11:35:37,-0.565895,-0.022465,0.603465
2024-08-20 11:35:37,-1.863565,-1.835526,-1.863196
2024-08-20 11:35:37,-1.466701,-0.808792,-0.413396
2024-08-20 11:35:37,-1.340271,-1.315915,1.318586
2024-08-20 11:35:37,0.489631,0.889452,-1.886722
2024-08-20 11:35:37,1.957164,-0.639585,1.23409
2024-08-20 11:35:37,-1.860118,-0.27652,0.400553
2024-08-20 11:35:37,1.886255,0.912109,0.817762
2024-08-20 11:35:38,1.246729,1.665533,-1.859649
2024-08-20 11:35:38,0.639817,-1.76022,1.668723
2024-08-20 11:35:38,-0.503309,1.369059,-1.681708
2024-08-20 11:35:38,-0.89369,0.940269,-0.013958
2024-08-20 11:35:38,-1.054985,-0.470702,-1.873785
2024-08-20 11:35:38,-0.603172,-1.768671,1.700231
2024-08-20 11:35:38,0.430059,-0.920704,1.571358
2024-08-20 11:35:38,-1.708775,0.333927,0.049801
2024-08-20 11:35:38,1.086058,-1.687383,0.857368
2024-08-20 11:35:39,1.268217,-0.600663,-0.935561
2024-08-20 11:35:39,0.103743,0.5255,1.410545
2024-08-20 11:35:39,1.38422,0.994077,1.985193
2024-08-20 11:35:39,1.423206,-1.590227,-1.409771
2024-08-20 11:35:39,1.159764,0.204516,-1.743834
2024-08-20 11:35:39,-1.150237,1.367859,-0.197861
2024-08-20 11:35:39,-0.094348,-0.753779,-0.488567
2024-08-20 11:35:39,-1.404054,-0.133521,0.782956
2024-08-20 11:35:39,0.77079,0.530352,1.298464
2024-08-20 11:35:39,-0.639552,-0.531891,-0.748208
2024-08-20 11:35:40,-1.099173,1.484953,-1.121684
2024-08-20 11:35:40,-1.263136,-1.256923,-1.215991
2024-08-20 11:35:40,-0.810535,0.609645,-1.828067
2024-08-20 11:35:40,0.612094,1.990854,-1.787559
2024-08-20 11:35:40,0.920269,-0.901447,-0.247734
2024-08-20 11:35:40,1.208928,-1.858477,0.206794
2024-08-20 11:35:40,-1.80732,-0.931613,-1.223961
2024-08-20 11:35:40,-1.432037,1.893666,-1.329827
2024-08-20 11:35:40,-1.801019,0.017759,0.633041
2024-08-20 11:35:40,-1.91018,0.888201,0.709993
2024-08-20 11:35:41,1.892912,-1.693745,-1.22848
2024-08-20 11:35:41,1.602573,0.035393,-1.363487
2024-08-20 11:35:41,0.780697,0.352003,1.823036
2024-08-20 11:35:41,-0.74036,1.974046,-1.690268
2024-08-20 11:35:41,0.262256,0.843842,0.525317
2024-08-20 11:35:41,0.156129,0.366596,1.791997
2024-08-20 11:35:41,0.490461,0.034267,-1.316799
2024-08-20 11:35:41,0.102403,1.793301,-0.955178
2024-08-20 11:35:41,-1.717746,-0.637299,0.415603
2024-08-20 11:35:42,-1.029331,-0.990682,-1.7507
2024-08-20 11:35:42,1.422991,-1.500918,1.334206
2024-08-20 11:35:42,-1.06438,0.18427,1.932253
2024-08-20 11:35:42,1.887531,0.269162,0.915983
2024-08-20 11:35:42,-0.802896,-0.914648,1.792025
2024-08-20 11:35:42,1.250909,-1.089281,-1.723308
2024-08-20 11:35:42,1.527223,-1.509769,1.9157
2024-08-20 11:35:42,-1.939618,1.193472,1.501377
2024-08-20 11:35:42,-0.3448,0.976132,1.846808
2024-08-20 11:35:42,0.831258,-0.716377,-1.222237
2024-08-20 11:35:43,1.976777,0.459092,-1.441409
2024-08-20 11:35:43,-0.406589,1.093106,-0.493699
2024-08-20 11:35:43,0.126354,-0.177077,0.855798
2024-08-20 11:35:43,1.378161,-1.656906,0.827197
2024-08-20 11:35:43,-1.666066,-1.696593,-1.861802
2024-08-20 11:35:43,-1.431139,-0.662259,0.93039
2024-08-20 11:35:43,1.448068,-1.177394,-0.252008
2024-08-20 11:35:43,0.929708,-0.853901,1.099619
2024-08-20 11:35:43,-0.126567,-1.211996,-1.494
2024-08-20 11:35:44,1.389201,-0.49271,-0.282692
2024-08-20 11:35:44,-1.387116,-1.467958,-0.649013
2024-08-20 11:35:44,1.792679,-1.614416,0.598593
2024-08-20 11:35:44,-0.796771,-1.039973,1.067627
2024-08-20 11:35:44,-1.183022,-1.759425,0.073387
2024-08-20 11:35:44,1.974167,1.131961,-0.174836
2024-08-20 11:35:44,-1.516864,1.737649,1.07158
2024-08-20 11:35:44,0.701007,1.20243,-0.552119
2024-08-20 11:35:44,0.098751,0.608872,1.788472
2024-08-20 11:35:44,1.58614,-0.88858,-0.27555
2024-08-20 11:35:45,0.801946,0.221579,0.518131
2024-08-20 11:35:45,0.504959,-1.208215,-1.922158
2024-08-20 11:35:45,-0.26756,-1.926927,-1.498049
2024-08-20 11:35:45,-0.87594,-0.417207,-1.282787
2024-08-20 11:35:45,-0.376481,-0.091415,0.755998
2024-08-20 11:35:45,1.033106,1.294503,-1.753365
2024-08-20 11:35:45,-0.703165,-1.987385,-1.084104
2024-08-20 11:35:45,-1.810476,0.934634,-0.684952
2024-08-20 11:35:45,0.170277,-1.802777,-1.621272
2024-08-20 11:35:45,0.47209,-0.619732,-0.814584
2024-08-20 11:35:46,-0.362869,-0.526168,1.220418
2024-08-20 11:35:46,-1.434002,1.688848,0.87837
2024-08-20 11:35:46,-1.3573,-1.698748,1.76145
2024-08-20 11:35:46,-0.277505,0.912469,0.289376
2024-08-20 11:35:46,0.851209,0.575798,1.689524
2024-08-20 11:35:46,1.052164,-0.516857,-0.669884
2024-08-20 11:35:46,-1.873028,-1.578813,0.417344
2024-08-20 11:35:46,-1.957418,0.497621,-1.844958
2024-08-20 11:35:46,0.566503,0.649716,0.6823
2024-08-20 11:35:47,-1.519227,1.822743,1.241002
2024-08-20 11:35:47,-0.27217,-1.744545,-0.78952
2024-08-20 11:35:47,-1.061119,-1.05056,1.144761
2024-08-20 11:35:47,0.717485,-0.831498,1.007482
2024-08-20 11:35:47,1.51827,-1.225105,0.153714
2024-08-20 11:35:47,-1.76539,-0.303074,-1.008603
2024-08-20 11:35:47,1.995846,-0.955473,-0.944512
2024-08-20 11:35:47,-1.776481,-0.955861,0.174616
2024-08-20 11:35:47,1.610392,-1.53607,1.475852
2024-08-20 11:35:47,-0.393065,1.91181,-0.951728
2024-08-20 11:35:48,0.065638,1.637833,1.158624
2024-08-20 11:35:48,1.633838,-1.868995,0.294423
2024-08-20 11:35:48,-0.979324,-1.594888,-1.016321
2024-08-20 11:35:48,-1.293932,1.274279,-0.008119
2024-08-20 11:35:48,-1.05401,1.045911,-1.32093
2024-08-20 11:35:48,1.559211,1.994751,-1.624914
2024-08-20 11:35:48,1.481889,0.006535,-0.150784
2024-08-20 11:35:48,-0.909581,-1.101796,0.178399
2024-08-20 11:35:48,-0.210251,0.214154,-1.43501
2024-08-20 11:35:49,0.908763,-0.862778,1.176828
2024-08-20 11:35:49,-1.516052,-0.035321,1.44566
2024-08-20 11:35:49,-1.706483,-1.479604,1.951138
2024-08-20 11:35:49,-1.109938,0.927482,-1.534932
2024-08-20 11:35:49,1.927077,1.807313,-0.911384
2024-08-20 11:35:49,0.2536,-1.523241,-1.25151
2024-08-20 11:35:49,-0.597842,-1.155614,-1.721036
2024-08-20 11:35:49,0.16174,-1.479952,-1.188271
2024-08-20 11:35:49,0.568226,0.539568,0.001805
2024-08-20 11:35:49,-1.057127,1.903672,0.323794
2024-08-20 11:35:50,0.94811,1.024113,0.936373
2024-08-20 11:35:50,-0.854407,1.47834,-0.737073
2024-08-20 11:35:50,-1.709631,1.676992,-0.573492
2024-08-20 11:35:50,-1.75336,0.137567,-1.471336
2024-08-20 11:35:50,0.197111,1.333572,-0.920789
2024-08-20 11:35:50,-1.886058,-0.740517,-1.566155
2024-08-20 11:35:50,1.646527,0.56471,-0.498928
2024-08-20 11:35:50,0.675064,-1.48427,0.636254
2024-08-20 11:35:50,-1.504655,1.349679,1.817234
2024-08-20 11:35:51,-1.407806,1.031766,-0.884106
2024-08-20 11:35:51,-1.644918,0.111978,0.354805
2024-08-20 11:35:51,1.838393,-0.445776,-0.412194
2024-08-20 11:35:51,1.595969,1.218882,-1.941222
2024-08-20 11:35:51,-0.39837,-1.849619,-1.461008
2024-08-20 11:35:51,-0.621873,-1.091325,1.963568
2024-08-20 11:35:51,0.270595,0.803494,-0.498518
2024-08-20 11:35:51,1.138904,1.276565,-1.313243
2024-08-20 11:35:51,1.146526,-0.072625,1.257325
2024-08-20 11:35:51,-0.511366,-0.558746,1.318654
2024-08-20 11:35:52,-0.94574,-1.212258,-0.361125
2024-08-20 11:35:52,0.620413,1.740478,-0.69969
2024-08-20 11:35:52,1.654467,1.701115,0.086507
2024-08-20 11:35:52,-0.920227,1.92287,-1.389239
2024-08-20 11:35:52,-0.951294,1.785455,0.216362
2024-08-20 11:35:52,-1.689844,-1.467593,-1.072211
2024-08-20 11:35:52,-1.796952,0.924331,0.787464
2024-08-20 11:35:52,-0.890847,-0.322275,-1.616895
2024-08-20 11:35:52,0.842516,-1.410678,-1.900519
2024-08-20 11:35:52,-1.845759,-0.397677,-0.465254
2024-08-20 11:35:53,0.570984,0.298716,1.805751
2024-08-20 11:35:53,0.72982,1.811241,1.089512
2024-08-20 11:35:53,-1.090395,-0.692444,-1.683439
2024-08-20 11:35:53,0.033929,0.10588,-1.766109
2024-08-20 11:35:53,0.550657,1.466299,1.29539
2024-08-20 11:35:53,0.926834,0.575266,1.285563
2024-08-20 11:35:53,-1.805713,-0.025119,-1.917166
2024-08-20 11:35:53,-0.1384,-0.804312,-1.042063
2024-08-20 11:35:53,-1.112131,-1.70701,-0.482085
2024-08-20 11:35:54,1.654122,-1.36358,-0.790779
2024-08-20 11:35:54,0.533195,0.727198,1.205497
2024-08-20 11:35:54,1.916501,-1.769907,-1.93828
2024-08-20 11:35:54,-1.743759,1.501111,-0.447623
2024-08-20 11:35:54,-0.491733,-0.968808,-0.569242
2024-08-20 11:35:54,-0.019563,0.597287,1.055384
2024-08-20 11:35:54,1.568921,1.661339,1.394499
2024-08-20 11:35:54,-1.403824,-0.604744,-0.413938
2024-08-20 11:35:54,-1.804998,0.093344,-1.615532
2024-08-20 11:35:54,-0.162828,-1.396185,-1.0757
2024-08-20 11:35:55,0.233576,0.732669,0.905746
2024-08-20 11:35:55,-0.127236,-1.659566,0.515867
2024-08-20 11:35:55,1.777336,-1.792344,1.133861
2024-08-20 11:35:55,1.867606,1.032908,1.281482
2024-08-20 11:35:55,-0.889743,1.082236,-0.915117
2024-08-20 11:35:55,0.402147,1.941025,-1.30136
2024-08-20 11:35:55,1.797322,0.088532,-1.892919
2024-08-20 11:35:55,1.449522,0.790812,-0.458413
2024-08-20 11:35:55,-0.893412,1.188438,-1.659845
2024-08-20 11:35:56,-0.077111,-1.216852,-0.091817
2024-08-20 11:35:56,1.100701,-1.715843,0.923927
2024-08-20 11:35:56,1.265138,0.512753,-1.47096
2024-08-20 11:35:56,-0.884382,-1.671877,-0.215927
2024-08-20 11:35:56,0.016935,-0.796029,1.025222
2024-08-20 11:35:56,-1.960958,0.567713,1.718515
2024-08-20 11:35:56,-1.548612,-0.551671,-0.228165
2024-08-20 11:35:56,-0.869297,-0.579785,-1.338289
2024-08-20 11:35:56,-1.11021,1.502006,-1.488393
2024-08-20 11:35:56,0.690535,-0.582052,0.359865
2024-08-20 11:35:57,0.453012,0.963992,-0.51439
2024-08-20 11:35:57,1.692722,1.713077,-1.735369
2024-08-20 11:35:57,1.824267,-1.474892,1.849206
2024-08-20 11:35:57,1.468395,-1.648875,-1.061948
2024-08-20 11:35:57,0.749548,-0.852611,0.232078
2024-08-20 11:35:57,0.499258,-1.627616,-1.015754
2024-08-20 11:35:57,0.885738,-1.886463,0.885071
2024-08-20 11:35:57,-0.547233,-0.619545,-1.826598
2024-08-20 11:35:57,-1.975082,-0.215397,0.431258
2024-08-20 11:35:57,-1.398815,1.062308,-1.860782
2024-08-20 11:35:58,0.210962,0.565104,1.187537
2024-08-20 11:35:58,0.481286,0.269373,-0.602668
2024-08-20 11:35:58,1.074239,-1.817794,-1.903095
2024-08-20 11:35:58,0.676155,1.875688,1.160978
2024-08-20 11:35:58,0.650242,1.726341,0.510299
2024-08-20 11:35:58,-1.740491,-0.700385,0.238646
2024-08-20 11:35:58,0.236059,1.632474,-1.102288
2024-08-20 11:35:58,1.134321,-1.510001,0.191215
2024-08-20 11:35:58,0.963215,0.56631,1.350668
2024-08-20 11:35:59,1.062857,1.469046,-1.591314
2024-08-20 11:35:59,1.083908,-0.795583,1.837253
2024-08-20 11:35:59,-1.964732,-0.603837,-1.514309
2024-08-20 11:35:59,1.934029,1.615024,-0.341082
2024-08-20 11:35:59,-0.661125,0.887133,-1.94617
2024-08-20 11:35:59,-1.181865,-1.868976,1.241534
2024-08-20 11:35:59,-0.925102,-0.786787,-1.530588
2024-08-20 11:35:59,-1.684509,1.644664,-0.869844
2024-08-20 11:35:59,0.44124,-0.087723,1.796626
2024-08-20 11:35:59,1.673448,-0.190295,1.622146
2024-08-20 11:36:00,-0.356057,-1.495376,-1.82709
2024-08-20 11:36:00,1.379736,1.619852,0.349447
2024-08-20 11:36:00,-1.119752,-0.939202,-1.906816
2024-08-20 11:36:00,-0.504085,1.459805,1.151104
2024-08-20 11:36:00,-0.866989,-1.624981,-1.961985
2024-08-20 11:36:00,0.124196,-1.235296,0.381742
2024-08-20 11:36:00,-1.345801,-0.684425,-1.975628
2024-08-20 11:36:00,0.602386,-0.315708,1.642144
2024-08-20 11:36:00,1.631023,-1.446484,-1.226389
2024-08-20 11:36:01,-0.33155,1.478146,1.609826
2024-08-20 11:36:01,0.334238,0.0226,-0.375182
2024-08-20 11:36:01,-1.161902,1.398646,-1.087431
2024-08-20 11:36:01,0.380522,-0.994504,0.828617
2024-08-20 11:36:01,1.862885,0.370957,-0.113188
2024-08-20 11:36:01,-1.758387,1.376266,1.544535
2024-08-20 11:36:01,1.910435,-1.880576,-0.97524
2024-08-20 11:36:01,-1.776465,-0.950527,-0.15291
2024-08-20 11:36:01,-0.485232,1.585355,-1.795271
2024-08-20 11:36:01,-1.888896,-0.385004,-0.911224
2024-08-20 11:36:02,0.185101,1.492655,-0.793357
2024-08-20 11:36:02,-0.18503,-1.112184,-0.039815
2024-08-20 11:36:02,1.635014,-1.180149,0.369609
2024-08-20 11:36:02,-1.184155,0.815726,1.684354
2024-08-20 11:36:02,1.227727,-0.691664,-1.795435
2024-08-20 11:36:02,0.094183,-0.312458,-0.302852
2024-08-20 11:36:02,-0.919708,0.193366,0.900955
2024-08-20 11:36:02,-1.552627,-1.125076,1.150371
2024-08-20 11:36:02,-1.312922,-1.81146,0.393408
2024-08-20 11:36:02,-0.585516,0.823369,1.606846
2024-08-20 11:36:03,-1.50946,1.789126,1.393175
2024-08-20 11:36:03,-0.828135,-0.42391,1.946876
2024-08-20 11:36:03,-1.922159,0.80405,1.689315
2024-08-20 11:36:03,0.54517,0.593088,1.683242
2024-08-20 11:36:03,-1.07961,-1.396253,0.565329
2024-08-20 11:36:03,0.247534,0.810319,-1.859648
2024-08-20 11:36:03,-1.147375,-0.769902,1.953654
2024-08-20 11:36:03,1.069604,1.428833,-0.228849
2024-08-20 11:36:03,-0.145186,0.385077,1.056759
2024-08-20 11:36:04,0.750574,-0.150367,1.286591
2024-08-20 11:36:04,1.246608,0.470402,-1.445133
2024-08-20 11:36:04,-0.699102,0.836343,-0.969924
2024-08-20 11:36:04,1.826086,0.632738,0.026948
2024-08-20 11:36:04,1.990379,1.368395,1.760517
2024-08-20 11:36:04,-0.550547,1.197973,0.302049
2024-08-20 11:36:04,0.616689,-0.33563,-1.81243
2024-08-20 11:36:04,-0.43875,0.365243,1.722714
2024-08-20 11:36:04,1.551581,-1.225043,1.919612
2024-08-20 11:36:04,-0.618377,-1.602588,0.559522
2024-08-20 11:36:05,1.481405,0.719389,-1.590105
2024-08-20 11:36:05,0.959068,-1.549814,-1.511687
2024-08-20 11:36:05,-1.906788,-0.411836,0.911643
2024-08-20 11:36:05,0.512685,0.613238,-0.192048
2024-08-20 11:36:05,1.863127,-1.71793,-1.700714
2024-08-20 11:36:05,-1.92245,-1.357694,-0.029505
2024-08-20 11:36:05,-0.817628,1.284864,1.935372
2024-08-20 11:36:05,1.779525,0.596579,1.906044
2024-08-20 11:36:05,0.258808,-1.182862,0.065631
2024-08-20 11:36:06,-0.616803,1.900898,1.098031
2024-08-20 11:36:06,0.271231,-1.620821,1.124923
2024-08-20 11:36:06,1.008953,0.653429,0.668121
2024-08-20 11:36:06,-0.096368,-0.292107,-0.03466
2024-08-20 11:36:06,0.202371,-0.760543,1.494481
2024-08-20 11:36:06,-1.820067,-0.940489,0.386787
2024-08-20 11:36:06,1.284153,-0.06613,-1.231228
2024-08-20 11:36:06,-1.102452,0.662738,-1.728122
2024-08-20 11:36:06,-1.068361,-1.321369,1.243154
2024-08-20 11:36:06,0.110397,-0.066939,-0.288362
2024-08-20 11:36:07,-0.479118,-0.201044,0.565497
2024-08-20 11:36:07,1.288503,-1.770657,0.148839
2024-08-20 11:36:07,-1.207829,0.767177,-0.746826
2024-08-20 11:36:07,0.158248,-0.99381,1.859156
2024-08-20 11:36:07,1.529425,1.307107,1.648124
2024-08-20 11:36:07,-1.627359,-1.077652,-1.81812
2024-08-20 11:36:07,0.015221,-0.401896,1.451562
2024-08-20 11:36:07,-0.040197,1.372735,-0.625508
2024-08-20 11:36:07,1.151369,0.657879,-0.309626
2024-08-20 11:36:07,-1.708836,-0.310378,0.590366
2024-08-20 11:36:08,-1.293967,1.980612,0.431903
2024-08-20 11:36:08,-1.400963,-0.948871,-1.562749
2024-08-20 11:36:08,-1.930605,0.154961,-1.831361
2024-08-20 11:36:08,1.036216,1.128837,0.546173
2024-08-20 11:36:08,-0.794025,1.907057,0.67459
2024-08-20 11:36:08,1.667204,-0.662205,-0.694644
2024-08-20 11:36:08,-1.651606,1.555361,-0.419221
2024-08-20 11:36:08,-1.992184,1.048939,1.464108
2024-08-20 11:36:08,0.140737,1.421433,-0.105162
2024-08-20 11:36:09,1.520668,-1.383501,-0.467688
2024-08-20 11:36:09,0.902046,1.105085,-0.064699
2024-08-20 11:36:09,-1.808609,1.174379,0.700222
2024-08-20 11:36:09,0.079649,0.03709,1.489404
2024-08-20 11:36:09,-1.900146,-0.475471,1.249326
2024-08-20 11:36:09,-0.63428,0.315909,-0.177023
2024-08-20 11:36:09,-0.673839,-1.083032,-1.624898
2024-08-20 11:36:09,1.14596,0.919526,0.349659
2024-08-20 11:36:09,0.283105,0.992132,0.99991
2024-08-20 11:36:09,-1.259134,0.47879,0.422811
2024-08-20 11:36:10,-0.078515,-0.403074,-1.266434
2024-08-20 11:36:10,-0.93596,0.278336,0.18702
2024-08-20 11:36:10,-1.47821,-1.877395,-0.037478
2024-08-20 11:36:10,0.407042,-0.404377,-1.30338
2024-08-20 11:36:10,0.921653,1.401571,1.169989
2024-08-20 11:36:10,1.209576,1.603617,0.49153
2024-08-20 11:36:10,1.924129,-1.097941,-1.968041
2024-08-20 11:36:10,1.429885,0.43989,-1.852793
2024-08-20 11:36:10,0.512045,0.90938,-1.787223
2024-08-20 11:36:11,-1.142805,-1.857131,0.193415
2024-08-20 11:36:11,1.543245,-0.028149,-0.540911
2024-08-20 11:36:11,-1.605364,-0.365005,-0.072701
2024-08-20 11:36:11,-1.840372,-1.837956,0.531138
2024-08-20 11:36:11,0.368804,-1.511706,-0.406326
2024-08-20 11:36:11,1.7224,-0.506196,1.745628
2024-08-20 11:36:11,0.546003,-1.590951,-0.92542
2024-08-20 11:36:11,-0.506397,-1.454623,-0.668572
2024-08-20 11:36:11,0.675926,1.52045,-1.250808
2024-08-20 11:36:11,1.057951,1.622481,-0.806583
2024-08-20 11:36:12,1.8735,-0.454094,-1.023642
2024-08-20 11:36:12,0.948468,-1.405965,-0.160552
2024-08-20 11:36:12,1.053073,-0.662782,-1.55496
2024-08-20 11:36:12,0.417208,1.392758,1.004037
2024-08-20 11:36:12,-0.987701,-0.268131,0.647199
2024-08-20 11:36:12,0.414317,1.332458,0.41459
2024-08-20 11:36:12,-1.275924,-0.154482,-0.802941
2024-08-20 11:36:12,-0.957043,-1.068741,0.258664
2024-08-20 11:36:12,-0.873722,1.786321,-0.243352
2024-08-20 11:36:12,1.980554,-1.426881,-0.895566
2024-08-20 11:36:13,1.633287,-0.446321,0.996267
2024-08-20 11:36:13,-1.877161,1.428474,1.541189
2024-08-20 11:36:13,-0.976,-1.053087,-1.786547
2024-08-20 11:36:13,0.422989,-1.038518,0.918037
2024-08-20 11:36:13,-1.305753,1.245934,1.325849
2024-08-20 11:36:13,0.142855,-1.452654,0.033495
2024-08-20 11:36:13,-0.544455,1.561641,-1.739495
2024-08-20 11:36:13,0.756891,1.616339,-1.471756
2024-08-20 11:36:13,-0.882392,1.982297,1.961566
2024-08-20 11:36:14,0.633913,-0.695106,0.652788
2024-08-20 11:36:14,-1.783047,-1.230529,-0.808976
2024-08-20 11:36:14,-0.022119,0.863766,1.442536
2024-08-20 11:36:14,1.658629,-0.441283,0.333065
2024-08-20 11:36:14,-1.145435,-0.387662,-0.234784
2024-08-20 11:36:14,0.547447,0.036805,-0.869817
2024-08-20 11:36:14,1.869783,-0.849525,-1.61237
2024-08-20 11:36:14,1.88286,-1.252429,0.997502
2024-08-20 11:36:14,0.666562,1.195324,-1.158199
2024-08-20 11:36:14,1.871789,-0.73506,-0.977335
2024-08-20 11:36:15,-0.207949,-0.8221,1.497828
2024-08-20 11:36:15,-0.23285,0.01121,-1.714792
2024-08-20 11:36:15,-0.469013,1.602648,-1.559317
2024-08-20 11:36:15,0.780898,-0.535539,1.04153
2024-08-20 11:36:15,0.662536,0.826291,-1.878664
2024-08-20 11:36:15,1.890605,0.950981,-0.671191
2024-08-20 11:36:15,1.623456,-1.53689,0.003412
2024-08-20 11:36:15,-1.715514,-1.13285,-1.41229
2024-08-20 11:36:15,0.158998,1.896399,-0.18216
2024-08-20 11:36:16,1.796891,-0.995518,1.623753
2024-08-20 11:36:16,-1.970185,0.212234,0.473635
2024-08-20 11:36:16,-0.326826,1.129141,0.74134
2024-08-20 11:36:16,0.803986,0.779245,-0.249965
2024-08-20 11:36:16,1.862856,-1.361965,-1.332998
2024-08-20 11:36:16,-1.15073,-0.749669,1.709715
2024-08-20 11:36:16,1.894973,-1.771313,0.39437
2024-08-20 11:36:16,0.070257,0.759664,0.799685
2024-08-20 11:36:16,1.307367,-0.175174,0.194383
2024-08-20 11:36:16,-1.9988,-1.213566,-1.428497
2024-08-20 11:36:17,0.58363,-0.004576,0.620035
2024-08-20 11:36:17,0.420002,1.406053,-1.200029
2024-08-20 11:36:17,-1.139756,-1.71901,0.380931
2024-08-20 11:36:17,1.709513,1.061303,-0.064875
2024-08-20 11:36:17,-0.761746,-1.858786,-0.253262
2024-08-20 11:36:17,-1.405271,-0.910742,-1.914616
2024-08-20 11:36:17,0.024784,0.016888,-1.840965
2024-08-20 11:36:17,-1.832228,-1.162609,1.363168
2024-08-20 11:36:17,-0.393973,-1.237774,-0.683546
2024-08-20 11:36:17,1.661091,-1.831306,1.490865
2024-08-20 11:36:18,1.288552,-1.023721,1.736008
2024-08-20 11:36:18,1.903437,1.707434,1.482948
2024-08-20 11:36:18,-0.979253,-0.947645,0.81882
2024-08-20 11:36:18,-0.987776,-1.704501,-0.344616
2024-08-20 11:36:18,-1.735231,1.299816,-0.334004
2024-08-20 11:36:18,-1.673299,0.801385,-0.411096
2024-08-20 11:36:18,-0.898187,0.441781,-1.974685
2024-08-20 11:36:18,1.948049,0.888289,-0.813346
2024-08-20 11:36:18,-1.222088,-0.539788,1.361869
2024-08-20 11:36:19,-1.293476,-0.9374,0.029428
2024-08-20 11:36:19,0.540915,-1.743268,-0.384613
2024-08-20 11:36:19,1.322741,-0.200412,0.249207
2024-08-20 11:36:19,1.485232,0.807069,-1.018421
2024-08-20 11:36:19,-1.782213,1.090201,-1.240981
2024-08-20 11:36:19,-0.712219,-0.26649,-1.253476
2024-08-20 11:36:19,-0.848383,0.946263,-0.487
2024-08-20 11:36:19,0.944161,1.523514,0.591171
2024-08-20 11:36:19,-0.122341,0.383572,1.770431
2024-08-20 11:36:19,0.445628,-1.714107,1.564204
2024-08-20 11:36:20,-1.870285,1.697716,1.63102
2024-08-20 11:36:20,1.556648,-1.282781,0.464171
2024-08-20 11:36:20,1.870822,-1.130102,1.851949
2024-08-20 11:36:20,-0.416979,-0.025465,-1.614442
2024-08-20 11:36:20,1.572508,-0.067466,1.298503
2024-08-20 11:36:20,-1.731817,0.500257,-1.422609
2024-08-20 11:36:20,-1.702805,-1.991669,1.270294
2024-08-20 11:36:20,-0.309696,0.270627,-0.75376
2024-08-20 11:36:20,-1.944531,-0.814608,-1.57518
2024-08-20 11:36:21,0.298563,-0.34268,-1.860697
2024-08-20 11:36:21,-0.39782,1.641629,-1.058324
2024-08-20 11:36:21,0.324595,0.78893,0.136264
2024-08-20 11:36:21,1.66074,0.46682,-1.484673
2024-08-20 11:36:21,-0.699338,-1.556283,-1.106644
2024-08-20 11:36:21,1.618859,0.469078,-0.588297
2024-08-20 11:36:21,0.446893,1.026702,0.084319
2024-08-20 11:36:21,1.657818,-0.758753,0.834071
2024-08-20 11:36:21,-0.994815,-0.203677,0.498365
2024-08-20 11:36:21,-1.14995,-0.452148,1.597624
2024-08-20 11:36:22,-0.129425,-1.314606,0.171685
2024-08-20 11:36:22,-1.320661,0.361795,-1.863221
2024-08-20 11:36:22,-0.447835,-0.784422,0.346589
2024-08-20 11:36:22,-0.255782,0.529278,-1.319806
2024-08-20 11:36:22,-0.716208,-1.546154,-0.095215
2024-08-20 11:36:22,-0.92947,-1.860228,-1.64215
2024-08-20 11:36:22,-1.330239,-1.565862,1.446084
2024-08-20 11:36:22,0.442011,1.624739,-0.26542
2024-08-20 11:36:22,0.215556,-1.911916,-1.71688
2024-08-20 11:36:23,1.814149,1.971279,1.754663
2024-08-20 11:36:23,0.10297,-0.904303,-0.49885
2024-08-20 11:36:23,1.875639,-1.551844,1.017706
2024-08-20 11:36:23,0.247143,-1.050965,-0.304257
2024-08-20 11:36:23,-1.65592,-0.889233,-1.381699
2024-08-20 11:36:23,1.172841,-1.911578,1.312724
2024-08-20 11:36:23,-0.426847,-1.727005,-1.426306
2024-08-20 11:36:23,-1.526428,-0.151185,-0.771886
2024-08-20 11:36:23,-1.132919,-0.594308,-0.687901
2024-08-20 11:36:23,-0.131003,-1.479884,-0.353361
2024-08-20 11:36:24,0.227316,-1.360798,-0.330352
2024-08-20 11:36:24,1.420364,-0.991894,1.612311
2024-08-20 11:36:24,1.130418,-0.091042,0.549858
2024-08-20 11:36:24,-1.365322,-0.900838,-1.605466
2024-08-20 11:36:24,1.680157,1.564445,1.334333
2024-08-20 11:36:24,-1.146997,-1.479503,1.051781
2024-08-20 11:36:24,-0.823197,1.32615,1.116113
2024-08-20 11:36:24,0.089478,1.950498,1.631661
2024-08-20 11:36:24,-0.828959,-1.449173,-1.577283
2024-08-20 11:36:24,-0.001775,-1.028633,1.308965
2024-08-20 11:36:25,-0.790913,-1.722626,-1.71374
2024-08-20 11:36:25,-0.332474,1.198837,1.825211
2024-08-20 11:36:25,0.412489,-1.968461,0.753229
2024-08-20 11:36:25,0.668391,-1.351967,-0.949476
2024-08-20 11:36:25,-0.650956,1.528192,-0.876117
2024-08-20 11:36:25,0.098886,1.981427,-0.722821
2024-08-20 11:36:25,1.275861,0.432605,-1.5983
2024-08-20 11:36:25,-0.541855,0.220831,0.054438
2024-08-20 11:36:25,-1.845835,-0.763238,-1.62888
2024-08-20 11:36:26,-0.158768,-1.734112,-0.253641
2024-08-20 11:36:26,1.354781,-1.088197,0.678261
2024-08-20 11:36:26,-0.96741,1.258202,1.594746
2024-08-20 11:36:26,1.067628,0.811505,1.495695
2024-08-20 11:36:26,1.122812,0.081481,0.375601
2024-08-20 11:36:26,1.62952,1.816898,-1.572968
2024-08-20 11:36:26,1.481134,1.402171,-1.67475
2024-08-20 11:36:26,0.468836,1.935205,-1.229413
2024-08-20 11:36:26,1.037496,0.546978,1.651582
2024-08-20 11:36:26,1.687518,-1.00773,-0.319315
2024-08-20 11:36:27,1.534693,1.920858,1.67844
2024-08-20 11:36:27,-1.604294,-0.640482,1.303902
2024-08-20 11:36:27,-1.346937,0.868877,1.617445
2024-08-20 11:36:27,0.797432,-0.179301,-0.213236
2024-08-20 11:36:27,-0.013408,0.819092,0.828552
2024-08-20 11:36:27,-1.514264,-1.705705,0.347162
2024-08-20 11:36:27,1.362719,1.719421,-0.734899
2024-08-20 11:36:27,-1.042032,-0.908159,-0.835013
2024-08-20 11:36:27,0.678026,1.340485,-0.40209
2024-08-20 11:36:28,1.72813,1.866037,0.119394
2024-08-20 11:36:28,1.739174,-0.937152,0.968784
2024-08-20 11:36:28,0.2663,0.783617,-1.70535
2024-08-20 11:36:28,-0.077675,1.685418,1.558576
2024-08-20 11:36:28,0.884617,-1.335795,1.643262
2024-08-20 11:36:28,-1.068183,0.680154,0.95828
2024-08-20 11:36:28,-1.098655,-1.048506,1.911713
2024-08-20 11:36:28,-0.902296,-1.34992,0.289689
2024-08-20 11:36:28,0.86351,1.037455,-0.243827
2024-08-20 11:36:28,0.735336,-1.63703,1.520493
2024-08-20 11:36:29,-1.249862,-1.61219,1.09739
2024-08-20 11:36:29,0.940392,-0.564083,-1.251771
2024-08-20 11:36:29,1.730428,-0.583182,-0.372799
2024-08-20 11:36:29,-1.759994,-1.273028,0.102381
2024-08-20 11:36:29,-1.993137,1.49715,0.380049
2024-08-20 11:36:29,-1.610111,1.461068,0.980041
2024-08-20 11:36:29,0.315998,-1.225334,0.657524
2024-08-20 11:36:29,-1.614002,0.228561,1.12426
2024-08-20 11:36:29,-0.599521,-1.405034,0.353274
2024-08-20 11:36:29,1.614249,-0.552952,-0.588089
2024-08-20 11:36:30,0.39203,1.873326,1.644738
2024-08-20 11:36:30,-0.946572,-1.501024,-1.621545
2024-08-20 11:36:30,-0.007592,1.874101,-0.519843
2024-08-20 11:36:30,-0.807216,-1.039823,-0.81495
2024-08-20 11:36:30,-1.330415,0.615517,-0.94472
2024-08-20 11:36:30,-1.368648,-1.275908,-1.521626
2024-08-20 11:36:30,0.737493,-0.076426,0.346205
2024-08-20 11:36:30,-1.212554,-1.905983,-1.64866
2024-08-20 11:36:30,1.934443,0.501816,0.351314
2024-08-20 11:36:31,0.100746,-1.786859,1.215816
2024-08-20 11:36:31,-0.702486,1.130399,0.521991
2024-08-20 11:36:31,0.220195,1.10367,1.286041
2024-08-20 11:36:31,1.430731,-0.924695,1.492392
2024-08-20 11:36:31,1.858686,-1.925284,-0.21003
2024-08-20 11:36:31,-0.611992,1.38772,1.665283
2024-08-20 11:36:31,-1.348984,1.997304,-1.630206
2024-08-20 11:36:31,0.83572,-1.16331,0.309866
2024-08-20 11:36:31,-1.226311,0.265267,-0.436938
2024-08-20 11:36:31,-0.347182,0.304283,1.393529
2024-08-20 11:36:32,-0.437551,0.222489,0.172638
2024-08-20 11:36:32,-0.196104,0.272584,-0.834827
2024-08-20 11:36:32,-1.896218,-0.583339,1.444979
2024-08-20 11:36:32,1.903781,0.308736,-0.269098
2024-08-20 11:36:32,-1.798947,-0.306601,1.906925
2024-08-20 11:36:32,0.212046,0.745251,0.355809
2024-08-20 11:36:32,-0.638143,0.269043,1.432297
2024-08-20 11:36:32,1.404815,-1.947561,-1.133066
2024-08-20 11:36:32,-0.200984,-1.501721,0.831911
2024-08-20 11:36:33,0.657495,0.710067,0.689178
2024-08-20 11:36:33,-1.545438,0.217905,-0.921668
2024-08-20 11:36:33,-1.063236,-0.112152,-0.999437
2024-08-20 11:36:33,0.847912,1.662187,-0.447485
2024-08-20 11:36:33,-0.3417,1.642019,-1.672921
2024-08-20 11:36:33,0.086682,0.307562,0.355587
2024-08-20 11:36:33,-1.254175,-0.252345,0.727279
2024-08-20 11:36:33,1.29746,0.610232,1.895361
2024-08-20 11:36:33,0.184967,1.461128,-1.264997
2024-08-20 11:36:33,-1.714816,1.211674,-0.195954
2024-08-20 11:36:34,1.982283,-1.387566,0.778863
2024-08-20 11:36:34,1.815676,0.903334,-1.548646
2024-08-20 11:36:34,-0.675542,1.568837,-1.405343
2024-08-20 11:36:34,-0.58411,-0.476867,-0.618423
2024-08-20 11:36:34,0.005781,-0.988233,0.459907
2024-08-20 11:36:34,-1.337112,0.067071,0.633799
2024-08-20 11:36:34,-0.569355,0.345362,-0.892912
2024-08-20 11:36:34,1.729256,-1.003244,-1.553994
2024-08-20 11:36:34,1.046553,1.697547,-0.877254
2024-08-20 11:36:34,-1.807074,1.773378,1.439214
2024-08-20 11:36:35,0.368731,-0.496072,0.020467
2024-08-20 11:36:35,-1.284238,0.269752,-1.569074
2024-08-20 11:36:35,-1.98902,-1.479327,0.118185
2024-08-20 11:36:35,-1.74493,1.060648,1.765169
2024-08-20 11:36:35,1.452881,1.12688,-1.122512
2024-08-20 11:36:35,1.181312,-0.923737,0.962326
2024-08-20 11:36:35,-0.103735,-0.340303,1.660277
2024-08-20 11:36:35,-0.725085,-1.902267,0.310505
2024-08-20 11:36:35,0.322011,-1.004502,-1.56114
2024-08-20 11:36:36,-1.676744,1.82786,-1.001421
2024-08-20 11:36:36,0.910367,-0.109643,-1.483434
2024-08-20 11:36:36,1.641691,-1.407123,-0.843226
2024-08-20 11:36:36,-0.469481,-1.145356,-1.394069
2024-08-20 11:36:36,-0.220378,-1.652611,1.28015
2024-08-20 11:36:36,0.100595,1.703878,0.073561
2024-08-20 11:36:36,-1.404265,-0.250693,-1.135656
2024-08-20 11:36:36,-0.809028,0.499594,0.708955
2024-08-20 11:36:36,-1.226803,0.596049,1.744905
2024-08-20 11:36:36,-0.435803,-1.225274,0.86979
2024-08-20 11:36:37,-0.20914,0.501557,-1.207528
2024-08-20 11:36:37,-1.82634,1.085329,0.845675
2024-08-20 11:36:37,-0.606323,1.336006,0.806926
2024-08-20 11:36:37,0.785369,0.323048,0.90735
2024-08-20 11:36:37,-0.893593,0.965682,0.069766
2024-08-20 11:36:37,-0.249582,1.48678,0.168869
2024-08-20 11:36:37,-0.461892,-1.720599,-1.059939
2024-08-20 11:36:37,-1.86713,-0.238606,0.193817
2024-08-20 11:36:37,-1.918974,0.4983,-1.036542
2024-08-20 11:36:38,1.759069,-0.128298,0.644696
2024-08-20 11:36:38,-1.002133,0.737086,1.654021
2024-08-20 11:36:38,-0.877613,0.953211,-1.094803
2024-08-20 11:36:38,0.989981,1.516005,-0.653795
2024-08-20 11:36:38,0.930148,0.090882,1.674119
2024-08-20 11:36:38,-1.58341,-1.827113,-0.493971
2024-08-20 11:36:38,0.439672,-0.922059,1.794671
2024-08-20 11:36:38,1.49026,-1.369667,1.012755
2024-08-20 11:36:38,1.124103,1.702337,-1.411176
2024-08-20 11:36:38,1.995106,0.003766,1.831844
2024-08-20 11:36:39,-0.342248,-0.199238,-0.95655
2024-08-20 11:36:39,1.813256,-0.093399,0.066105
2024-08-20 11:36:39,-1.168131,-1.568032,-1.73509
2024-08-20 11:36:39,1.033582,-1.35572,-0.277586
2024-08-20 11:36:39,-1.248662,-0.873884,-0.150196
2024-08-20 11:36:39,1.288503,0.739634,0.90367
2024-08-20 11:36:39,0.378101,-0.515112,1.46607
2024-08-20 11:36:39,1.222439,-1.548579,0.076603
2024-08-20 11:36:39,-0.049036,-1.316145,1.176587
2024-08-20 11:36:40,1.427488,0.239939,0.151131
2024-08-20 11:36:40,1.223259,0.37222,0.867417
2024-08-20 11:36:40,0.185695,0.284462,1.434828
2024-08-20 11:36:40,-1.801831,1.493271,1.469739
2024-08-20 11:36:40,-0.15262,-1.600838,1.246873
2024-08-20 11:36:40,0.817711,1.439171,-1.792328
2024-08-20 11:36:40,-0.402805,-1.070185,-0.088474
2024-08-20 11:36:40,1.804024,-0.733317,0.261502
2024-08-20 11:36:40,1.010971,0.293616,1.687243
2024-08-20 11:36:40,-1.205226,0.035822,-0.006758
2024-08-20 11:36:41,-0.914381,0.577365,-0.01018
2024-08-20 11:36:41,-0.185319,0.275003,-0.254029
2024-08-20 11:36:41,0.45111,-1.887775,-0.869123
2024-08-20 11:36:41,-1.812377,-0.158376,-1.274789
2024-08-20 11:36:41,1.565753,-0.199744,-0.91219
2024-08-20 11:36:41,-0.063168,-0.708106,-0.140172
2024-08-20 11:36:41,0.291932,0.509941,-1.750465
2024-08-20 11:36:41,1.820416,-0.692933,-0.666795
2024-08-20 11:36:41,-1.865414,0.819423,-0.476966
2024-08-20 11:36:41,0.260696,1.62869,-1.077045
2024-08-20 11:36:42,-1.640689,1.071573,-0.949658
2024-08-20 11:36:42,-0.203917,1.400351,1.154204
2024-08-20 11:36:42,-1.675515,-0.258687,1.097239
2024-08-20 11:36:42,0.405861,1.809821,-1.615392
2024-08-20 11:36:42,-1.350131,1.323086,1.564187
2024-08-20 11:36:42,-1.639247,0.106596,1.813509
2024-08-20 11:36:42,-0.321121,-1.653254,1.029384
2024-08-20 11:36:42,-0.001985,0.295575,1.202362
2024-08-20 11:36:42,0.636549,-1.698541,0.002822
2024-08-20 11:36:43,-1.259835,-1.711704,1.742929
2024-08-20 11:36:43,0.492047,0.389589,0.5629
2024-08-20 11:36:43,0.148779,-0.196107,-0.718862
2024-08-20 11:36:43,-1.962737,0.98641,0.814314
2024-08-20 11:36:43,1.072888,-0.638131,0.660044
2024-08-20 11:36:43,0.538162,0.629971,1.381122
2024-08-20 11:36:43,0.467118,1.808729,0.927273
2024-08-20 11:36:43,0.389101,0.205472,0.591968
2024-08-20 11:36:43,-0.296883,-1.532198,0.006815
2024-08-20 11:36:43,1.295913,-0.185806,-0.969796
2024-08-20 11:36:44,1.783006,1.932239,-1.68912
2024-08-20 11:36:44,-1.358882,0.188689,0.385061
2024-08-20 11:36:44,1.365089,-1.688872,0.591746
2024-08-20 11:36:44,-1.040057,0.367802,-1.631562
2024-08-20 11:36:44,-0.123711,1.132062,-0.227544
2024-08-20 11:36:44,-1.078156,-0.218868,-0.381058
2024-08-20 11:36:44,1.042681,-1.778338,-1.29275
2024-08-20 11:36:44,0.384186,-0.946605,0.573021
2024-08-20 11:36:44,1.9164,1.159314,0.664581
2024-08-20 11:36:44,-0.706204,-1.084104,-0.586023
2024-08-20 11:36:45,0.32002,1.024002,1.231768
2024-08-20 11:36:45,-1.865602,1.569005,-0.733006
2024-08-20 11:36:45,-0.572598,-1.62067,1.043452
2024-08-20 11:36:45,-0.769884,-1.235327,-0.776391
2024-08-20 11:36:45,-0.111283,1.816391,1.047581
2024-08-20 11:36:45,-1.622935,-1.75862,1.874348
2024-08-20 11:36:45,1.470195,0.818705,-1.194975
2024-08-20 11:36:45,1.337468,-1.05163,1.155176
2024-08-20 11:36:45,-1.049809,-0.547568,-0.698233
2024-08-20 11:36:46,-0.589572,-0.395874,0.508312
2024-08-20 11:36:46,1.610231,0.804128,-1.926509
2024-08-20 11:36:46,1.43613,1.165794,-0.560009
2024-08-20 11:36:46,-0.674752,-0.926153,-1.591786
2024-08-20 11:36:46,-0.067749,-0.611247,0.528645
2024-08-20 11:36:46,-1.72789,-0.403244,1.019765
2024-08-20 11:36:46,-1.912459,1.432137,-1.118172
2024-08-20 11:36:46,0.136375,-0.022073,-0.463974
2024-08-20 11:36:46,0.635224,1.34471,-1.85768
2024-08-20 11:36:46,0.707192,1.738598,-1.856508
2024-08-20 11:36:47,-1.687337,-0.945476,0.339101
2024-08-20 11:36:47,0.558677,-1.963288,-0.098311
2024-08-20 11:36:47,0.279158,0.183543,1.742658
2024-08-20 11:36:47,-1.252554,-0.580588,-1.782486
2024-08-20 11:36:47,0.487986,0.445105,0.079064
2024-08-20 11:36:47,-1.688438,-1.481723,-0.52712
2024-08-20 11:36:47,1.038904,1.343644,-1.202856
2024-08-20 11:36:47,-0.750297,-0.900315,-0.216192
2024-08-20 11:36:47,-1.230431,-1.729901,-1.282857
2024-08-20 11:36:48,0.731538,1.425435,0.892602
2024-08-20 11:36:48,-1.322253,-0.860283,-1.724469
2024-08-20 11:36:48,-0.263612,-1.120018,-0.694102
2024-08-20 11:36:48,1.153303,-1.631545,1.090919
2024-08-20 11:36:48,1.212926,1.206959,-0.957567
2024-08-20 11:36:48,1.430818,1.197325,1.650078
2024-08-20 11:36:48,-1.714338,0.254724,0.867351
2024-08-20 11:36:48,0.244372,-0.152508,-1.967051
2024-08-20 11:36:48,1.098233,1.446467,1.612098
2024-08-20 11:36:48,-0.88795,-0.411078,0.120957
2024-08-20 11:36:49,0.543683,-0.843481,0.664299
2024-08-20 11:36:49,-1.529136,-0.206885,0.345162
2024-08-20 11:36:49,-0.166639,0.379137,0.829127
2024-08-20 11:36:49,-1.220229,0.432542,1.236861
2024-08-20 11:36:49,-1.411193,-1.486149,1.169976
2024-08-20 11:36:49,-0.476416,0.445945,0.548175
2024-08-20 11:36:49,1.093157,1.178426,-0.563999
2024-08-20 11:36:49,0.89675,1.229858,-1.111505
2024-08-20 11:36:49,0.007175,1.499801,-1.279896
2024-08-20 11:36:50,1.476334,-0.390386,-1.500049
2024-08-20 11:36:50,-1.137425,-0.974864,-1.505102
2024-08-20 11:36:50,-1.106643,1.285842,0.511418
2024-08-20 11:36:50,-0.460365,0.261299,0.723642
2024-08-20 11:36:50,1.492739,-0.928111,-1.311406
2024-08-20 11:36:50,1.685869,1.287633,1.077969
2024-08-20 11:36:50,1.631108,1.177858,1.67078
2024-08-20 11:36:50,-1.669195,-0.391688,-0.075661
2024-08-20 11:36:50,-0.547437,1.860582,0.619042
2024-08-20 11:36:50,-1.089722,-0.189067,-1.571105
2024-08-20 11:36:51,-0.287841,1.047307,-1.486579
2024-08-20 11:36:51,-0.79834,-1.237284,-0.554841
2024-08-20 11:36:51,-0.606937,1.553638,-0.820506
2024-08-20 11:36:51,-1.773098,-0.639206,-1.670084
2024-08-20 11:36:51,-1.545337,1.422438,0.053865
2024-08-20 11:36:51,1.693376,-1.063061,1.87869
2024-08-20 11:36:51,0.765191,0.403486,-0.086312
2024-08-20 11:36:51,1.240383,0.20794,1.384804
2024-08-20 11:36:51,0.713619,1.318412,-1.785629
2024-08-20 11:36:51,-0.661302,0.163662,1.652986
2024-08-20 11:36:52,-0.988589,0.16867,-1.672889
2024-08-20 11:36:52,0.604845,0.60126,-1.492067
2024-08-20 11:36:52,0.486841,-0.625634,1.238629
2024-08-20 11:36:52,-0.286944,-0.24741,-1.009576
2024-08-20 11:36:52,-0.220757,1.827701,0.439251
2024-08-20 11:36:52,1.29774,0.862732,-0.212152
2024-08-20 11:36:52,-0.024136,-0.153572,1.919941
2024-08-20 11:36:52,-0.953002,0.149711,1.163927
2024-08-20 11:36:52,1.326983,0.938717,1.806577
2024-08-20 11:36:53,0.521813,-0.979691,-0.932036
2024-08-20 11:36:53,0.041476,0.554807,1.519621
2024-08-20 11:36:53,-0.512945,-0.894883,0.908759
2024-08-20 11:36:53,1.035733,-1.923968,1.096427
2024-08-20 11:36:53,1.493822,1.112115,1.280144
2024-08-20 11:36:53,-0.443142,1.198487,-1.455923
2024-08-20 11:36:53,-1.919856,-1.469791,-1.590639
2024-08-20 11:36:53,1.59654,-1.882834,1.454353
2024-08-20 11:36:53,-1.318928,-1.605353,-1.099217
2024-08-20 11:36:53,1.733478,-1.324423,0.412548
2024-08-20 11:36:54,-1.467671,-0.157694,1.29479
2024-08-20 11:36:54,0.174237,0.797097,1.453536
2024-08-20 11:36:54,-1.021851,-0.112713,-1.952146
2024-08-20 11:36:54,-0.026944,-0.778988,1.605527
2024-08-20 11:36:54,0.874195,0.709163,1.725703
2024-08-20 11:36:54,-1.396965,1.495784,1.271414
2024-08-20 11:36:54,-1.494142,-0.160582,1.263534
2024-08-20 11:36:54,0.513819,-1.547188,-0.805146
2024-08-20 11:36:54,-0.661657,0.57187,1.074149
2024-08-20 11:36:55,-0.008204,-1.954915,0.203411
2024-08-20 11:36:55,0.254789,-1.531269,-1.350782
2024-08-20 11:36:55,0.632689,0.453143,1.400924
2024-08-20 11:36:55,-0.308546,1.012588,1.080465
2024-08-20 11:36:55,0.09285,0.741028,0.287073
2024-08-20 11:36:55,-1.960532,0.008656,1.315943
2024-08-20 11:36:55,0.554616,-1.188115,-1.93177
2024-08-20 11:36:55,0.442188,-0.800061,1.496502
2024-08-20 11:36:55,1.473111,-1.909038,1.187417
2024-08-20 11:36:55,0.906887,1.196843,1.085259
2024-08-20 11:36:56,0.020814,-0.342332,-0.022625
2024-08-20 11:36:56,0.506031,-1.457652,-1.082862
2024-08-20 11:36:56,1.217335,1.018495,1.459806
2024-08-20 11:36:56,-0.304755,-1.992932,-1.176515
2024-08-20 11:36:56,0.249559,0.491726,-0.582326
2024-08-20 11:36:56,-0.683935,1.919018,-0.554423
2024-08-20 11:36:56,-0.233545,-0.379774,-1.497737
2024-08-20 11:36:56,0.164086,0.425742,-0.701246
2024-08-20 11:36:56,1.501843,-0.732929,0.283603
2024-08-20 11:36:56,-0.999413,-0.51504,0.65711
2024-08-20 11:36:57,1.433115,-0.268225,1.616606
2024-08-20 11:36:57,-1.070259,-0.993686,1.615894
2024-08-20 11:36:57,-0.25963,-1.856203,-1.76948
2024-08-20 11:36:57,0.164646,-1.752614,-0.441272
2024-08-20 11:36:57,-1.695778,0.420565,-0.674035
2024-08-20 11:36:57,-0.731465,-0.459248,-0.627902
2024-08-20 11:36:57,-0.202125,0.101228,1.828847
2024-08-20 11:36:57,-0.10454,1.141302,-0.065986
2024-08-20 11:36:57,-1.268975,-0.33052,0.826985
2024-08-20 11:36:58,-0.03993,1.549096,-0.254175
2024-08-20 11:36:58,1.010657,-0.036769,-1.714147
2024-08-20 11:36:58,0.19279,-0.801051,0.80757
2024-08-20 11:36:58,-0.528201,-1.511675,0.813866
2024-08-20 11:36:58,0.580466,1.983964,-0.309342
2024-08-20 11:36:58,-1.591869,0.356045,-0.866695
2024-08-20 11:36:58,0.605069,0.035788,-1.963103
2024-08-20 11:36:58,-0.258376,0.952686,-1.488754
2024-08-20 11:36:58,-1.010726,-1.963157,0.997604
2024-08-20 11:36:58,-1.787344,-0.53192,-1.749793
2024-08-20 11:36:59,0.531194,-1.925981,0.894547
2024-08-20 11:36:59,1.064192,0.88829,1.285588
2024-08-20 11:36:59,-1.950183,-0.620763,-1.829103
2024-08-20 11:36:59,-0.881063,1.031494,-1.449916
2024-08-20 11:36:59,1.908424,0.216326,-0.389191
2024-08-20 11:36:59,0.837901,0.009333,1.350131
2024-08-20 11:36:59,0.820896,-1.502093,-0.444851
2024-08-20 11:36:59,1.435856,1.321817,1.629933
2024-08-20 11:36:59,-0.723261,-0.522424,-1.347956
2024-08-20 11:37:00,0.915785,0.076372,-1.497311
2024-08-20 11:37:00,-0.07982,0.75958,0.203518
2024-08-20 11:37:00,-0.154804,-0.832612,-1.760919
2024-08-20 11:37:00,0.749495,-0.373801,1.963739
2024-08-20 11:37:00,1.07273,-0.615326,-0.251981
2024-08-20 11:37:00,-1.275898,0.953473,0.320256
2024-08-20 11:37:00,-0.645675,1.938988,-0.335683
2024-08-20 11:37:00,-1.13958,-0.307552,1.815464
2024-08-20 11:37:00,1.248421,0.715296,0.185892
2024-08-20 11:37:00,0.299531,-1.122282,0.44303
2024-08-20 11:37:01,-0.388825,-0.506936,-1.363916
2024-08-20 11:37:01,1.494814,-0.78768,1.171668
2024-08-20 11:37:01,-1.456058,1.323832,0.223824
2024-08-20 11:37:01,1.723829,-0.347854,1.143645
2024-08-20 11:37:01,0.619453,0.80767,1.688192
2024-08-20 11:37:01,0.616333,1.349734,0.989535
2024-08-20 11:37:01,0.987032,-0.807515,-0.65794
2024-08-20 11:37:01,-0.101126,-1.058985,-0.25452
2024-08-20 11:37:01,1.40956,-0.875879,-1.900527
2024-08-20 11:37:01,-0.037146,1.555685,1.088073
2024-08-20 11:37:02,-0.441333,0.511586,-1.668218
2024-08-20 11:37:02,0.406685,0.032669,-1.532131
2024-08-20 11:37:02,0.901469,-0.277233,-1.708912
2024-08-20 11:37:02,-1.761227,1.176888,1.401193
2024-08-20 11:37:02,0.516177,0.621869,-0.447216
2024-08-20 11:37:02,0.248231,-0.545362,-1.525897
2024-08-20 11:37:02,1.05776,0.96764,-1.674205
2024-08-20 11:37:02,-1.845497,-0.5706,1.117314
2024-08-20 11:37:02,-1.46281,0.387631,0.036036
2024-08-20 11:37:03,-0.040899,0.576281,-1.233349
2024-08-20 11:37:03,-1.966678,1.932028,0.140206
2024-08-20 11:37:03,-0.421291,-0.093724,0.223054
2024-08-20 11:37:03,-1.783457,-1.244868,0.046457
2024-08-20 11:37:03,-1.985912,-0.451794,-0.027054
2024-08-20 11:37:03,1.139756,-0.843779,0.154775
2024-08-20 11:37:03,-0.040006,1.179633,-1.395483
2024-08-20 11:37:03,1.052492,-0.923068,0.836256
2024-08-20 11:37:03,1.517997,1.544294,-1.268634
2024-08-20 11:37:03,-1.438399,0.401316,1.739436
2024-08-20 11:37:04,-1.972437,-1.681555,-0.605719
2024-08-20 11:37:04,-0.387897,-1.256243,-1.73805
2024-08-20 11:37:04,-1.788662,1.848099,1.471367
2024-08-20 11:37:04,-1.060815,1.704291,0.24532
2024-08-20 11:37:04,-0.944902,-1.572059,0.587626
2024-08-20 11:37:04,-1.40692,1.426828,-1.52773
2024-08-20 11:37:04,1.011752,0.128856,1.707281
2024-08-20 11:37:04,-0.090885,-0.335159,-1.536077
2024-08-20 11:37:04,0.522252,1.384984,0.661304
2024-08-20 11:37:05,-1.359226,-0.440497,-1.377923
2024-08-20 11:37:05,-0.640272,-0.240973,0.813329
2024-08-20 11:37:05,1.436391,1.178419,-0.609062
2024-08-20 11:37:05,0.201173,-0.670289,0.426667
2024-08-20 11:37:05,-0.063741,-1.929142,-0.032528
2024-08-20 11:37:05,1.863103,1.399383,-1.97525
2024-08-20 11:37:05,0.822539,0.919326,-1.144083
2024-08-20 11:37:05,1.911525,-0.699588,-1.619642
2024-08-20 11:37:05,-0.454234,-1.874018,-0.86013
2024-08-20 11:37:05,0.560811,-1.565774,-0.690136
2024-08-20 11:37:06,0.121014,0.25246,0.910855
2024-08-20 11:37:06,1.308702,-1.579822,0.575364
2024-08-20 11:37:06,0.952214,0.906105,-1.500629
2024-08-20 11:37:06,1.198851,-1.245117,-0.688696
2024-08-20 11:37:06,0.869389,-0.152154,0.698315
2024-08-20 11:37:06,-1.345892,0.409843,1.186681
2024-08-20 11:37:06,-0.526642,-1.831894,1.758525
2024-08-20 11:37:06,-0.135163,-0.634673,-0.344126
2024-08-20 11:37:06,-0.120529,-0.878163,1.093364
2024-08-20 11:37:07,1.674172,-0.077571,1.820138
2024-08-20 11:37:07,-1.646832,0.605706,0.733962
2024-08-20 11:37:07,-0.438598,1.042158,-1.565759
2024-08-20 11:37:07,-1.149969,0.338165,-0.935668
2024-08-20 11:37:07,-0.614998,1.632608,-1.491804
2024-08-20 11:37:07,1.576488,-1.417772,1.42236
2024-08-20 11:37:07,1.617202,0.267836,-1.083284
2024-08-20 11:37:07,1.19671,-1.443563,0.485864
2024-08-20 11:37:07,1.498492,-1.289711,-1.514456
2024-08-20 11:37:07,1.135916,1.347887,-1.152812
2024-08-20 11:37:08,0.684284,-1.822106,1.475856
2024-08-20 11:37:08,-0.745992,1.779946,1.469907
2024-08-20 11:37:08,1.920001,1.111131,-0.09191
2024-08-20 11:37:08,-0.033347,-0.271183,-0.2585
2024-08-20 11:37:08,-0.814524,0.891879,-1.84729
2024-08-20 11:37:08,-0.305176,-0.022673,1.822498
2024-08-20 11:37:08,1.514794,0.680633,-1.227263
2024-08-20 11:37:08,1.058058,-1.864397,-1.174729
2024-08-20 11:37:08,-1.05424,-1.284227,1.402965
2024-08-20 11:37:08,-1.071776,0.309863,0.757999
2024-08-20 11:37:09,-0.311044,-1.143706,-1.552829
2024-08-20 11:37:09,0.567688,-1.078276,-1.49015
2024-08-20 11:37:09,1.54051,1.98233,1.326877
2024-08-20 11:37:09,1.209266,0.387774,1.587695
2024-08-20 11:37:09,-0.880372,0.91615,-1.936915
2024-08-20 11:37:09,1.659674,-0.00368,1.344538
2024-08-20 11:37:09,-1.999368,-1.568197,-1.412382
2024-08-20 11:37:09,-0.595259,-1.165004,-1.253169
2024-08-20 11:37:09,-1.000562,0.450275,-1.48037
2024-08-20 11:37:10,1.513381,0.505141,-0.96314
2024-08-20 11:37:10,1.703129,-1.560817,0.771592
2024-08-20 11:37:10,-0.299827,-1.62922,-0.223431
2024-08-20 11:37:10,0.487655,-1.03559,-0.037578
2024-08-20 11:37:10,-1.870877,-0.648138,0.274558
2024-08-20 11:37:10,1.49796,-1.166039,1.2886
2024-08-20 11:37:10,-0.051372,-0.686267,1.473923
2024-08-20 11:37:10,1.000407,1.904825,-1.07308
2024-08-20 11:37:10,-0.327049,-0.310743,0.838225
2024-08-20 11:37:10,-0.238203,1.435403,0.300017
2024-08-20 11:37:11,-1.266809,-1.607504,1.753612
2024-08-20 11:37:11,-0.086558,-1.519394,-0.316131
2024-08-20 11:37:11,-0.14862,0.545861,0.934844
2024-08-20 11:37:11,-0.214928,1.602728,-0.246986
2024-08-20 11:37:11,-0.522284,1.130479,0.031883
2024-08-20 11:37:11,0.574796,-0.4469,-1.192277
2024-08-20 11:37:11,0.255776,-1.598414,-1.524986
2024-08-20 11:37:11,-1.937503,0.788438,1.121537
2024-08-20 11:37:11,-1.235015,1.426095,-0.644908
2024-08-20 11:37:12,-0.056903,1.857275,1.305458
2024-08-20 11:37:12,-0.983961,-1.914859,0.935403
2024-08-20 11:37:12,0.66333,0.841077,0.14352
2024-08-20 11:37:12,0.183337,0.099141,-0.352348
2024-08-20 11:37:12,1.265756,-0.025418,-0.774863
2024-08-20 11:37:12,-0.550254,0.558457,-1.040892
2024-08-20 11:37:12,-1.776684,0.197635,-1.340317
2024-08-20 11:37:12,-0.732433,-0.562128,0.239418
2024-08-20 11:37:12,-1.70058,-1.028186,-0.87779
2024-08-20 11:37:12,-0.079324,0.486879,-0.080815
2024-08-20 11:37:13,-0.448017,0.691198,1.222673
2024-08-20 11:37:13,1.514706,-1.804622,0.227653
2024-08-20 11:37:13,-1.066598,1.153385,-1.853645
2024-08-20 11:37:13,-1.169616,1.519837,-0.408968
2024-08-20 11:37:13,0.215749,1.151,-0.152711
2024-08-20 11:37:13,-0.016271,-1.33883,-0.474515
2024-08-20 11:37:13,-0.050437,0.963583,0.91152
2024-08-20 11:37:13,0.659434,1.369801,-0.13177
2024-08-20 11:37:13,-1.365488,-1.19086,-0.624812
2024-08-20 11:37:13,-1.200325,-0.868304,-1.819577
2024-08-20 11:37:14,-0.350577,1.359671,1.219546
2024-08-20 11:37:14,0.492737,-1.969948,0.033324
2024-08-20 11:37:14,-0.594582,-0.158284,0.800733
2024-08-20 11:37:14,0.765296,1.857094,1.53557
2024-08-20 11:37:14,-1.910091,0.456235,0.705754
2024-08-20 11:37:14,1.821235,-0.298694,0.40816
2024-08-20 11:37:14,0.77025,-1.526308,-0.858718
2024-08-20 11:37:14,1.68388,-1.010343,0.967135
2024-08-20 11:37:14,0.875942,-1.535216,-1.544752
2024-08-20 11:37:15,-0.239839,-0.349779,0.706757
2024-08-20 11:37:15,-1.372942,0.396882,-1.144557
2024-08-20 11:37:15,0.834267,-1.512246,-0.402414
2024-08-20 11:37:15,-1.875261,-1.208746,-0.091101
2024-08-20 11:37:15,-1.152234,0.641353,-1.700152
2024-08-20 11:37:15,1.423144,-0.749778,-0.284831
2024-08-20 11:37:15,1.809262,-0.846644,-1.606349
2024-08-20 11:37:15,0.049908,-0.997493,0.355633
2024-08-20 11:37:15,-0.200083,1.866748,-0.886412
2024-08-20 11:37:15,-1.78384,0.747634,-0.300028
2024-08-20 11:37:16,-0.671579,-1.333376,1.091841
2024-08-20 11:37:16,0.619973,1.325588,-0.505402
2024-08-20 11:37:16,-1.22323,-0.645929,-0.042069
2024-08-20 11:37:16,1.619034,-1.209407,-1.74294
2024-08-20 11:37:16,-1.129157,0.688834,0.813913
2024-08-20 11:37:16,-0.121986,0.731055,-0.981785
2024-08-20 11:37:16,-0.19194,0.544798,0.792783
2024-08-20 11:37:16,1.069578,0.004045,0.277881
2024-08-20 11:37:16,1.439979,-0.006188,-1.874971
2024-08-20 11:37:17,1.522363,-1.656235,1.676503
2024-08-20 11:37:17,0.71124,-1.405796,0.722676
2024-08-20 11:37:17,-1.363921,0.432881,0.867365
2024-08-20 11:37:17,0.124495,-0.3448,-0.101912
2024-08-20 11:37:17,-1.375662,-1.972276,-0.929109
2024-08-20 11:37:17,-0.081562,0.487687,0.286312
2024-08-20 11:37:17,0.316349,-0.494667,0.424387
2024-08-20 11:37:17,-1.344496,1.29115,0.234819
2024-08-20 11:37:17,-1.606869,-0.414822,-0.781117
2024-08-20 11:37:17,-0.101541,1.703404,-1.929622
2024-08-20 11:37:18,-1.90412,-0.069575,0.06219
2024-08-20 11:37:18,1.511697,-1.038984,-1.22813
2024-08-20 11:37:18,1.461229,1.193245,1.000656
2024-08-20 11:37:18,0.992248,1.588142,1.968358
2024-08-20 11:37:18,0.554135,-1.481186,-1.899182
2024-08-20 11:37:18,-1.605065,0.869656,-1.980018
2024-08-20 11:37:18,-0.796603,-0.552298,1.848632
2024-08-20 11:37:18,-1.118346,-1.835884,1.440055
2024-08-20 11:37:18,1.799403,0.999712,1.303627
2024-08-20 11:37:18,1.088021,-0.366781,-1.271796
2024-08-20 11:37:19,0.47526,0.891935,-0.74423
2024-08-20 11:37:19,-1.132356,-1.241517,-0.522508
2024-08-20 11:37:19,0.69874,1.660173,1.738852
2024-08-20 11:37:19,-1.419152,1.350794,0.046062
2024-08-20 11:37:19,-1.460483,1.468443,-1.117843
2024-08-20 11:37:19,-0.137683,-1.773622,-1.706217
2024-08-20 11:37:19,0.233588,1.32165,-0.595356
2024-08-20 11:37:19,0.741519,1.315444,1.857819
2024-08-20 11:37:19,0.953793,1.877189,-1.537908
2024-08-20 11:37:20,1.650602,-1.0776,0.781009
2024-08-20 11:37:20,-0.572397,0.580266,0.062772
2024-08-20 11:37:20,1.300631,0.180826,1.200148
2024-08-20 11:37:20,1.013806,-0.792326,-1.708538
2024-08-20 11:37:20,1.648054,0.479836,0.23153
2024-08-20 11:37:20,0.042062,0.691632,-1.697325
2024-08-20 11:37:20,-1.114589,1.045878,0.17972
2024-08-20 11:37:20,-0.303264,0.157634,-1.274603
2024-08-20 11:37:20,1.309489,-0.8803,1.162995
2024-08-20 11:37:20,-1.685413,-0.418836,-0.581333
2024-08-20 11:37:21,1.601079,0.158811,-0.969518
2024-08-20 11:37:21,0.982185,1.843198,-1.87016
2024-08-20 11:37:21,-1.9687,1.482648,1.24328
2024-08-20 11:37:21,1.145419,1.100279,0.607422
2024-08-20 11:37:21,-1.659796,-0.537054,1.45011
2024-08-20 11:37:21,-1.542921,1.146918,-0.267281
2024-08-20 11:37:21,0.293036,0.15951,0.691705
2024-08-20 11:37:21,-0.013451,-1.510783,0.003714
2024-08-20 11:37:21,-1.054494,0.839355,0.614975
2024-08-20 11:37:22,0.559946,-0.478069,-0.440073
2024-08-20 11:37:22,-0.265699,0.955437,-0.890951
2024-08-20 11:37:22,-1.411495,-1.488823,-1.908759
2024-08-20 11:37:22,1.861463,1.651064,-0.244322
2024-08-20 11:37:22,-1.65448,1.299514,0.0922
2024-08-20 11:37:22,-0.512425,1.000482,1.954651
2024-08-20 11:37:22,0.687514,1.627916,0.871744
2024-08-20 11:37:22,-1.606228,-1.818677,-0.215601
2024-08-20 11:37:22,-1.594213,-1.817981,0.284222
2024-08-20 11:37:22,-0.398298,1.797745,0.21082
2024-08-20 11:37:23,0.010601,1.822198,-1.150467
2024-08-20 11:37:23,-0.038087,0.913552,-1.091892
2024-08-20 11:37:23,0.97559,-1.386413,0.33196
2024-08-20 11:37:23,0.255145,-1.480674,-0.639227
2024-08-20 11:37:23,-1.149137,0.527985,0.295512
2024-08-20 11:37:23,0.785953,-1.233673,0.369901
2024-08-20 11:37:23,-0.356806,1.289296,-0.873788
2024-08-20 11:37:23,1.117414,-0.206105,0.051081
2024-08-20 11:37:23,0.283898,-1.013264,1.779164
2024-08-20 11:37:24,0.732416,0.177684,1.03787
2024-08-20 11:37:24,-1.944103,-1.982441,0.731957
2024-08-20 11:37:24,-1.948154,-1.15995,0.916812
2024-08-20 11:37:24,-1.625338,0.802581,1.40058
2024-08-20 11:37:24,-1.026498,0.792009,0.128175
2024-08-20 11:37:24,-0.494587,0.036109,0.947016
2024-08-20 11:37:24,1.978549,0.474743,1.698385
2024-08-20 11:37:24,1.742518,1.459344,-0.558023
2024-08-20 11:37:24,-0.730877,-1.746313,-0.194278
2024-08-20 11:37:24,-0.098741,-1.969314,-0.438468
2024-08-20 11:37:25,0.922838,-0.304032,1.072316
2024-08-20 11:37:25,1.166534,1.034248,-0.164537
2024-08-20 11:37:25,0.594975,0.797813,1.964458
2024-08-20 11:37:25,0.690934,0.861101,-1.350711
2024-08-20 11:37:25,0.549382,0.011825,-1.896299
2024-08-20 11:37:25,0.467997,-1.454518,-0.089349
2024-08-20 11:37:25,-1.706494,1.691177,0.647407
2024-08-20 11:37:25,0.644876,0.176222,1.399649
2024-08-20 11:37:25,0.324934,1.397938,0.07432
2024-08-20 11:37:26,1.163558,-0.270771,-1.917213
2024-08-20 11:37:26,1.23968,-1.869882,-1.691541
2024-08-20 11:37:26,-0.220703,-1.13363,0.499282
2024-08-20 11:37:26,1.647711,1.98988,0.05074
2024-08-20 11:37:26,-0.478825,-0.558727,1.832906
2024-08-20 11:37:26,-1.565843,0.576275,-0.596124
2024-08-20 11:37:26,-1.202021,1.804354,0.027908
2024-08-20 11:37:26,0.143835,1.508781,1.682854
2024-08-20 11:37:26,1.670589,-0.779285,-1.477679
2024-08-20 11:37:26,-0.571662,-1.318732,-0.011456
2024-08-20 11:37:27,-0.450752,-1.612815,1.596998
2024-08-20 11:37:27,-1.238137,-0.188484,1.176293
2024-08-20 11:37:27,0.599383,-1.288686,1.337583
2024-08-20 11:37:27,0.05706,0.3345,0.170764
2024-08-20 11:37:27,-1.974534,1.272158,0.556913
2024-08-20 11:37:27,1.446763,0.257889,1.310108
2024-08-20 11:37:27,-0.829721,-0.687667,-0.84205
2024-08-20 11:37:27,0.01704,-1.751779,0.942373
2024-08-20 11:37:27,0.226596,-0.296493,-0.750105
2024-08-20 11:37:27,-1.021837,0.406967,0.12194
2024-08-20 11:37:28,0.679767,1.309262,0.452597
2024-08-20 11:37:28,1.666727,0.359933,1.189656
2024-08-20 11:37:28,-0.532965,0.340015,-0.869804
2024-08-20 11:37:28,-0.718424,1.391502,-0.958114
2024-08-20 11:37:28,1.781074,-1.7105,-0.512466
2024-08-20 11:37:28,-1.128295,0.668301,-0.003406
2024-08-20 11:37:28,0.550106,-1.336171,1.636121
2024-08-20 11:37:28,0.393126,0.724219,1.186191
2024-08-20 11:37:28,-0.476935,-1.841273,-0.574432
2024-08-20 11:37:29,0.790798,-0.022524,0.801696
2024-08-20 11:37:29,1.241228,-0.275709,-0.531031
2024-08-20 11:37:29,-1.793579,0.433584,0.780155
2024-08-20 11:37:29,-0.952832,1.154365,-0.037947
2024-08-20 11:37:29,0.392315,-1.087713,-0.730769
2024-08-20 11:37:29,0.171344,-1.92225,-1.450695
2024-08-20 11:37:29,1.362061,-1.204356,-1.74212
2024-08-20 11:37:29,-1.579941,0.629457,0.389217
2024-08-20 11:37:29,0.184835,1.133291,0.070556
2024-08-20 11:37:29,-0.148046,0.700576,0.156608
2024-08-20 11:37:30,1.987423,1.983901,1.78588
2024-08-20 11:37:30,1.257969,-1.21742,1.215597
2024-08-20 11:37:30,0.909386,-0.777869,-1.437478
2024-08-20 11:37:30,0.827525,1.05464,-1.06081
2024-08-20 11:37:30,0.806936,0.857267,-1.282043
2024-08-20 11:37:30,-1.617662,-0.338465,0.691845
2024-08-20 11:37:30,1.210131,-0.577036,1.459133
2024-08-20 11:37:30,-1.488079,-0.190411,-0.767439
2024-08-20 11:37:30,-1.790096,-0.101155,0.61432
2024-08-20 11:37:31,-1.952262,-1.475546,-0.772506
2024-08-20 11:37:31,-1.719786,-0.589136,0.695015
2024-08-20 11:37:31,-0.490549,-1.39703,-0.39623
2024-08-20 11:37:31,0.669536,-0.63482,-1.269128
2024-08-20 11:37:31,-0.995269,-1.328114,0.779999
2024-08-20 11:37:31,1.662992,1.670517,-1.219882
2024-08-20 11:37:31,1.806931,0.06821,-1.658868
2024-08-20 11:37:31,-0.728675,1.262421,-0.168302
2024-08-20 11:37:31,0.746792,-0.306925,1.107118
2024-08-20 11:37:31,0.030203,-1.759149,1.845295
2024-08-20 11:37:32,1.886059,-0.053861,0.918558
2024-08-20 11:37:32,-0.859788,0.242681,1.017434
2024-08-20 11:37:32,-1.243719,0.003576,-1.261881
2024-08-20 11:37:32,-0.479438,0.547662,1.353374
2024-08-20 11:37:32,1.223488,-1.075337,-1.24583
2024-08-20 11:37:32,0.158073,1.985005,1.608133
2024-08-20 11:37:32,-1.935674,1.143417,-1.419679
2024-08-20 11:37:32,0.887415,-0.169195,-1.701003
2024-08-20 11:37:32,0.672631,-1.112087,1.183064
2024-08-20 11:37:32,0.984104,-1.009449,-0.645955
2024-08-20 11:37:33,-1.607459,-1.954322,1.078027
2024-08-20 11:37:33,-1.704786,1.508405,-1.927949
2024-08-20 11:37:33,-1.813413,1.38432,-1.619704
2024-08-20 11:37:33,-0.902167,-1.663242,-1.341997
2024-08-20 11:37:33,-0.874538,0.891539,-0.719199
2024-08-20 11:37:33,0.433211,0.459636,1.517585
2024-08-20 11:37:33,0.330723,-1.557021,-1.522209
2024-08-20 11:37:33,0.066875,0.890736,0.971585
2024-08-20 11:37:33,-1.981922,1.90981,0.594149
2024-08-20 11:37:34,-0.388548,-0.092756,1.706139
2024-08-20 11:37:34,0.2779,0.810902,1.934766
2024-08-20 11:37:34,-1.437718,0.636466,1.352674
2024-08-20 11:37:34,-1.785883,-1.075348,0.780572
2024-08-20 11:37:34,-0.531966,-0.739732,1.732807
2024-08-20 11:37:34,-0.553347,1.851896,1.377464
2024-08-20 11:37:34,-0.353691,0.742963,-1.474552
2024-08-20 11:37:34,1.991635,1.514362,-0.946639
2024-08-20 11:37:34,-0.103625,-0.831579,1.666332
2024-08-20 11:37:34,1.003654,-1.162462,1.319925
2024-08-20 11:37:35,-0.770509,-1.482049,-0.620252
2024-08-20 11:37:35,-0.368378,-0.529849,-0.571331
2024-08-20 11:37:35,0.556537,-1.201003,1.118967
2024-08-20 11:37:35,1.481114,0.555753,0.300293
2024-08-20 11:37:35,-0.107803,-0.934954,-0.527698
2024-08-20 11:37:35,0.263999,1.093945,-1.356341
2024-08-20 11:37:35,-0.648779,-0.222705,-1.051652
2024-08-20 11:37:35,0.337074,0.417323,1.609391
2024-08-20 11:37:35,-0.016812,0.942898,0.967197
2024-08-20 11:37:36,-1.764985,1.074022,0.177299
2024-08-20 11:37:36,-0.676503,1.797786,-0.087586
2024-08-20 11:37:36,1.83831,0.549815,-0.725002
2024-08-20 11:37:36,1.336838,0.15365,1.283425
2024-08-20 11:37:36,-1.033932,-0.783893,1.383017
2024-08-20 11:37:36,-0.692553,1.478378,-1.021769
2024-08-20 11:37:36,-0.907447,1.394059,-0.913174
2024-08-20 11:37:36,-1.555743,-0.204143,-1.390548
2024-08-20 11:37:36,1.308519,0.011386,-0.669237
2024-08-20 11:37:36,-0.603002,1.496544,1.460127
2024-08-20 11:37:37,0.71372,0.097772,-1.567832
2024-08-20 11:37:37,1.883386,-0.90342,0.925006
2024-08-20 11:37:37,1.684324,0.595198,1.073736
2024-08-20 11:37:37,-0.428262,0.985312,0.250941
2024-08-20 11:37:37,0.1277,-1.078297,0.606566
2024-08-20 11:37:37,-1.261238,-0.274061,-0.572217
2024-08-20 11:37:37,0.997622,0.073042,-1.738031
2024-08-20 11:37:37,0.123927,-0.921055,-0.508905
2024-08-20 11:37:37,-0.175731,-1.381233,-0.446137
2024-08-20 11:37:37,1.898068,1.122782,1.524876
2024-08-20 11:37:38,-0.966719,1.467511,0.38953
2024-08-20 11:37:38,-1.520809,-1.150414,-0.78541
2024-08-20 11:37:38,-1.352165,-0.634635,-1.172264
2024-08-20 11:37:38,-1.452362,0.896598,1.407637
2024-08-20 11:37:38,-0.623743,-1.168795,0.495858
2024-08-20 11:37:38,-0.998847,1.013468,1.211027
2024-08-20 11:37:38,-0.062176,-1.5723,-1.954789
2024-08-20 11:37:38,0.692643,-0.241885,1.72921
2024-08-20 11:37:38,1.475177,0.1597,-0.479603
2024-08-20 11:37:39,1.659915,1.602702,0.75595
2024-08-20 11:37:39,-0.876998,1.430748,-0.885228
2024-08-20 11:37:39,-1.048093,-0.457294,-0.277403
2024-08-20 11:37:39,1.657261,0.588518,0.085985
2024-08-20 11:37:39,-0.872939,-1.913593,-0.39237
2024-08-20 11:37:39,0.96255,-0.548612,-1.03415
2024-08-20 11:37:39,-1.616618,1.821895,-1.394732
2024-08-20 11:37:39,1.424446,-0.756866,1.473264
2024-08-20 11:37:39,0.806987,-1.417624,1.880591
2024-08-20 11:37:39,-1.385386,1.603354,-0.43844
2024-08-20 11:37:40,1.324693,-0.006611,-0.160395
2024-08-20 11:37:40,-1.863848,1.031588,-1.709252
2024-08-20 11:37:40,1.461912,1.571821,-0.768704
2024-08-20 11:37:40,0.416933,0.498643,0.437964
2024-08-20 11:37:40,-0.09561,-1.219793,0.879931
2024-08-20 11:37:40,0.305414,-1.448896,0.534848
2024-08-20 11:37:40,-1.565718,-1.397344,-0.40061
2024-08-20 11:37:40,1.275247,1.588226,-0.217368
2024-08-20 11:37:40,1.677459,1.493611,-1.269273
2024-08-20 11:37:41,-0.809938,-1.698315,0.898517
2024-08-20 11:37:41,-0.551071,-0.199274,-1.365217
2024-08-20 11:37:41,1.016365,0.76687,1.440114
2024-08-20 11:37:41,-0.312621,-0.725678,-1.39352
2024-08-20 11:37:41,-1.9619,-1.902673,-1.093117
2024-08-20 11:37:41,-0.114593,-1.02524,0.839518
2024-08-20 11:37:41,0.47483,1.941296,0.813745
2024-08-20 11:37:41,-1.394436,1.426877,-0.88279
2024-08-20 11:37:41,0.404333,0.727699,1.115468
2024-08-20 11:37:41,-0.57122,-0.558725,0.737306
2024-08-20 11:37:42,1.979563,1.724495,-0.596053
2024-08-20 11:37:42,-1.859552,-1.761546,-1.696968
2024-08-20 11:37:42,-0.537637,0.394876,0.959871
2024-08-20 11:37:42,0.131892,-0.48297,-0.926277
2024-08-20 11:37:42,0.752291,-0.161569,1.527459
2024-08-20 11:37:42,-1.064401,-1.303446,-1.44917
2024-08-20 11:37:42,0.112944,1.985931,-0.225515
2024-08-20 11:37:42,0.099605,1.533044,1.582337
2024-08-20 11:37:42,-0.355632,-0.157102,1.889446
2024-08-20 11:37:43,1.041144,1.267259,-1.575887
2024-08-20 11:37:43,-0.096039,-0.057035,-1.065778
2024-08-20 11:37:43,-1.609622,0.068046,-0.467513
2024-08-20 11:37:43,-0.910288,1.61949,-0.943232
2024-08-20 11:37:43,0.165229,1.49255,0.815911
2024-08-20 11:37:43,-1.555097,-0.265746,-0.476077
2024-08-20 11:37:43,0.787793,-0.153012,-0.822528
2024-08-20 11:37:43,0.853022,-0.924437,-0.856223
2024-08-20 11:37:43,0.887101,0.612686,1.199104
2024-08-20 11:37:43,1.441058,1.607465,-0.763841
2024-08-20 11:37:44,-0.900628,-1.229694,0.186919
2024-08-20 11:37:44,1.036143,0.655127,-1.704749
2024-08-20 11:37:44,-1.704535,-1.939658,1.98448
2024-08-20 11:37:44,-0.757426,-0.29156,0.132122
2024-08-20 11:37:44,-1.359656,0.792578,-0.640079
2024-08-20 11:37:44,-1.15621,1.304904,-0.736089
2024-08-20 11:37:44,0.582013,-1.243727,0.573497
2024-08-20 11:37:44,1.181074,-1.589319,0.793742
2024-08-20 11:37:44,1.243325,0.162545,-0.34043
2024-08-20 11:37:44,0.879312,1.591659,-0.027168
2024-08-20 11:37:45,-1.374699,-0.180784,-0.784063
2024-08-20 11:37:45,0.800832,-1.015395,0.098417
2024-08-20 11:37:45,1.820557,-1.136133,0.911449
2024-08-20 11:37:45,1.819196,1.028582,-1.418317
2024-08-20 11:37:45,0.69818,0.905187,-0.415895
2024-08-20 11:37:45,1.354754,-0.587772,-1.835471
2024-08-20 11:37:45,0.913728,0.38719,-1.591996
2024-08-20 11:37:45,-0.124144,-0.351631,1.110031
2024-08-20 11:37:45,-0.090055,0.801518,1.996056
2024-08-20 11:37:46,1.675578,1.581349,0.150086
2024-08-20 11:37:46,-0.527601,1.48187,0.383204
2024-08-20 11:37:46,1.370036,0.677031,-1.931771
2024-08-20 11:37:46,-1.990296,1.521462,0.423838
2024-08-20 11:37:46,-0.673914,-1.533963,-0.141053
2024-08-20 11:37:46,-0.00494,0.435245,-0.805367
2024-08-20 11:37:46,1.913953,1.327883,1.056177
2024-08-20 11:37:46,-1.784617,1.740897,-1.323871
2024-08-20 11:37:46,-0.58292,0.119086,0.702076
2024-08-20 11:37:46,-0.824394,-1.311576,1.677213
2024-08-20 11:37:47,1.696202,0.522275,-1.62681
2024-08-20 11:37:47,1.614345,0.908091,-0.865552
2024-08-20 11:37:47,1.478626,-0.176673,-0.447757
2024-08-20 11:37:47,-0.998659,0.147187,0.957124
2024-08-20 11:37:47,-0.639172,1.783508,-0.996862
2024-08-20 11:37:47,-0.364477,0.652993,1.122596
2024-08-20 11:37:47,-0.107932,-0.374615,1.502677
2024-08-20 11:37:47,1.560743,-0.222197,-1.175074
2024-08-20 11:37:47,-1.016426,-0.37045,-0.075857
2024-08-20 11:37:48,0.166034,-0.362741,-0.903253
2024-08-20 11:37:48,1.985898,1.613464,0.437924
2024-08-20 11:37:48,-0.527683,1.148812,0.299701
2024-08-20 11:37:48,-1.367409,-0.447972,-0.39731
2024-08-20 11:37:48,-1.641278,-1.329544,1.198167
2024-08-20 11:37:48,1.42741,-1.789171,-1.866791
2024-08-20 11:37:48,-0.502344,0.438602,-0.547813
2024-08-20 11:37:48,1.379965,-0.417893,-0.585656
2024-08-20 11:37:48,-0.498104,0.263291,1.557283
2024-08-20 11:37:48,1.040537,-1.238812,-1.322938
2024-08-20 11:37:49,-0.867169,-1.120592,-1.609711
2024-08-20 11:37:49,1.377665,0.16146,-0.287401
2024-08-20 11:37:49,-1.454945,-1.813983,-0.792779
2024-08-20 11:37:49,-1.412408,-0.80213,-1.125745
2024-08-20 11:37:49,0.788602,-0.173652,0.362421
2024-08-20 11:37:49,-1.928264,-1.025353,1.160822
2024-08-20 11:37:49,0.179019,-1.099645,1.273503
2024-08-20 11:37:49,0.310783,0.560946,-1.238372
2024-08-20 11:37:49,-1.24913,1.188865,1.871451
2024-08-20 11:37:49,1.630435,-1.0998,-0.228256
2024-08-20 11:37:50,1.358988,1.317273,1.819439
2024-08-20 11:37:50,-1.187803,0.892938,0.977504
2024-08-20 11:37:50,1.217847,0.595965,-0.557859
2024-08-20 11:37:50,-1.855023,-1.135246,0.902774
2024-08-20 11:37:50,0.201769,-1.279882,-1.022309
2024-08-20 11:37:50,0.628667,1.774898,-0.497491
2024-08-20 11:37:50,-0.819276,-1.329573,-0.37802
2024-08-20 11:37:50,-0.750007,1.040427,-1.694706
2024-08-20 11:37:50,-0.203429,0.579087,1.299074
2024-08-20 11:37:51,0.186734,-1.851667,-0.291379
2024-08-20 11:37:51,-1.623975,-1.695765,0.530663
2024-08-20 11:37:51,1.414053,-1.973619,0.852027
2024-08-20 11:37:51,-1.638248,0.808439,1.295546
2024-08-20 11:37:51,1.296137,0.026257,-1.5359
2024-08-20 11:37:51,0.312155,0.423609,-1.346565
2024-08-20 11:37:51,0.05107,0.01771,1.842446
2024-08-20 11:37:51,1.821228,-0.420025,0.953001
2024-08-20 11:37:51,1.894625,1.736213,1.690807
2024-08-20 11:37:51,-0.828904,-1.571818,1.517699
2024-08-20 11:37:52,0.656525,1.959289,-0.060527
2024-08-20 11:37:52,-0.787568,-0.878077,-1.518687
2024-08-20 11:37:52,1.753575,0.629666,-0.20112
2024-08-20 11:37:52,-1.957762,0.533861,-1.170155
2024-08-20 11:37:52,-1.129338,-0.946474,1.581968
2024-08-20 11:37:52,0.739094,0.346553,1.11535
2024-08-20 11:37:52,-1.43689,0.793362,-1.304911
2024-08-20 11:37:52,-0.721059,-0.122944,-0.733772
2024-08-20 11:37:52,-0.675408,1.801447,-0.045059
2024-08-20 11:37:53,-1.120056,0.961789,0.352425
2024-08-20 11:37:53,0.163966,0.868165,-0.53051
2024-08-20 11:37:53,-0.463477,-1.201215,-1.924717
2024-08-20 11:37:53,1.856459,-1.639611,-0.713831
2024-08-20 11:37:53,0.137493,-1.935726,-0.718493
2024-08-20 11:37:53,-1.460724,-1.713747,1.532026
2024-08-20 11:37:53,-0.162169,1.939729,-1.767987
2024-08-20 11:37:53,0.211117,1.475454,1.882198
2024-08-20 11:37:53,-0.665421,-1.369665,1.133366
2024-08-20 11:37:53,1.246549,1.430423,0.542335
2024-08-20 11:37:54,-1.759756,1.924459,-0.512361
2024-08-20 11:37:54,0.548011,0.754759,-0.034346
2024-08-20 11:37:54,-1.913203,-0.161262,-0.926092
2024-08-20 11:37:54,-1.343769,0.110107,-1.889905
2024-08-20 11:37:54,0.026971,-0.31737,0.9851
2024-08-20 11:37:54,-1.202862,-0.65094,-0.421621
2024-08-20 11:37:54,1.688755,-1.271117,1.677063
2024-08-20 11:37:54,-0.028779,1.272604,0.281754
2024-08-20 11:37:54,-0.608393,-1.722165,-0.701785
2024-08-20 11:37:55,-1.200385,-0.07674,-0.470841
2024-08-20 11:37:55,-1.913553,1.470785,-1.864455
2024-08-20 11:37:55,0.805093,-0.076106,0.137141
2024-08-20 11:37:55,-0.27697,0.15926,0.046236
2024-08-20 11:37:55,-0.685049,-1.928214,0.670057
2024-08-20 11:37:55,-1.518362,1.405612,0.954658
2024-08-20 11:37:55,1.157515,-1.746975,1.583526
2024-08-20 11:37:55,-1.413084,0.757779,1.824932
2024-08-20 11:37:55,-1.661459,-0.47423,-0.646228
2024-08-20 11:37:55,-1.735551,0.934292,1.574791
2024-08-20 11:37:56,-1.133392,0.336645,0.752764
2024-08-20 11:37:56,-0.009258,1.649007,0.448413
2024-08-20 11:37:56,0.545782,0.406773,-1.7601
2024-08-20 11:37:56,-1.305512,-0.285275,0.930472
2024-08-20 11:37:56,1.050681,-1.520799,0.615121
2024-08-20 11:37:56,1.153874,-0.452062,-1.811518
2024-08-20 11:37:56,0.77483,1.06046,-1.916368
2024-08-20 11:37:56,-0.56269,0.758224,-0.984046
2024-08-20 11:37:56,-0.45328,-1.285159,-0.066476
2024-08-20 11:37:56,-1.111705,-0.08014,-0.416328
2024-08-20 11:37:57,0.717438,0.903618,-1.551889
2024-08-20 11:37:57,-1.398754,1.207911,1.07727
2024-08-20 11:37:57,1.074007,-1.608185,-0.025219
2024-08-20 11:37:57,0.034518,-1.013917,0.472846
2024-08-20 11:37:57,-0.003624,-0.405607,-0.236933
2024-08-20 11:37:57,0.18618,1.345207,0.020155
2024-08-20 11:37:57,-0.413124,0.850772,-0.851805
2024-08-20 11:37:57,-1.416378,0.522871,-1.125366
2024-08-20 11:37:57,0.168451,0.326984,-1.040549
2024-08-20 11:37:58,-0.980376,1.860993,1.200347
2024-08-20 11:37:58,-0.17063,-1.445596,-1.047006
2024-08-20 11:37:58,0.799267,0.016291,-1.587157
2024-08-20 11:37:58,1.135112,1.689972,-0.986917
2024-08-20 11:37:58,-0.187824,-1.04792,-0.923363
2024-08-20 11:37:58,-0.346761,0.273676,0.415504
2024-08-20 11:37:58,1.339185,-0.557572,1.150873
2024-08-20 11:37:58,0.98489,-1.986291,0.954939
2024-08-20 11:37:58,-1.712851,-1.042013,1.920491
2024-08-20 11:37:58,-0.08522,0.159605,1.31587
2024-08-20 11:37:59,0.260723,1.235178,1.311179
2024-08-20 11:37:59,0.144366,-0.156981,0.188198
2024-08-20 11:37:59,1.102495,1.772326,-0.757857
2024-08-20 11:37:59,-0.604432,0.225646,0.601478
2024-08-20 11:37:59,-1.541833,-0.72375,1.094917
2024-08-20 11:37:59,0.085622,-0.550301,-0.321397
2024-08-20 11:37:59,0.553839,1.478933,-1.194233
2024-08-20 11:37:59,-0.928845,-0.301357,1.855744
2024-08-20 11:37:59,-1.491532,-1.305565,0.268465
2024-08-20 11:38:00,-0.205147,-0.661926,-0.831991
2024-08-20 11:38:00,1.370667,0.589514,0.166533
2024-08-20 11:38:00,-0.889811,-0.247278,-1.810335
2024-08-20 11:38:00,-1.641932,-1.364352,-1.431494
2024-08-20 11:38:00,0.31136,-0.317616,-0.159609
2024-08-20 11:38:00,-1.412936,-0.246886,1.759772
2024-08-20 11:38:00,-1.855704,-0.052427,-0.791908
2024-08-20 11:38:00,-0.931361,-1.622336,-1.816643
2024-08-20 11:38:00,0.15367,1.632167,1.71928
2024-08-20 11:38:00,-1.700748,0.744456,0.503847
2024-08-20 11:38:01,-1.140519,0.8278,1.881617
2024-08-20 11:38:01,0.23914,0.464022,1.634459
2024-08-20 11:38:01,1.780762,1.394193,-1.598966
2024-08-20 11:38:01,-0.728446,-1.556043,1.777606
2024-08-20 11:38:01,1.638686,0.873095,0.749259
2024-08-20 11:38:01,-1.363815,0.149114,0.923344
2024-08-20 11:38:01,1.146228,-0.292182,-0.968105
2024-08-20 11:38:01,-1.465162,-0.033328,1.052689
2024-08-20 11:38:01,0.575528,0.763382,0.570002
2024-08-20 11:38:01,1.430842,-0.811386,1.162522
2024-08-20 11:38:02,-1.807192,0.655019,1.401066
2024-08-20 11:38:02,1.91435,0.483575,0.949035
2024-08-20 11:38:02,0.841198,-1.879124,-0.844844
2024-08-20 11:38:02,1.492914,1.161311,-0.414017
2024-08-20 11:38:02,-0.867288,1.802472,-1.886861
2024-08-20 11:38:02,-1.998581,-0.835668,-0.725277
2024-08-20 11:38:02,-1.99835,0.745056,-1.590055
2024-08-20 11:38:02,-1.461318,-0.718434,1.837985
2024-08-20 11:38:02,1.408622,-0.379311,0.367104
2024-08-20 11:38:03,1.943943,-1.526276,1.847898
2024-08-20 11:38:03,0.552205,0.848064,-0.448993
2024-08-20 11:38:03,-1.55036,-1.986202,1.962889
2024-08-20 11:38:03,-0.230058,0.680691,0.246166
2024-08-20 11:38:03,-0.130004,-0.558597,-1.997411
2024-08-20 11:38:03,-0.252095,1.980716,-1.751857
2024-08-20 11:38:03,-0.087791,-0.872755,-0.131629
2024-08-20 11:38:03,1.998251,0.884298,-0.732272
2024-08-20 11:38:03,0.30777,-1.736163,-1.114312
2024-08-20 11:38:03,-0.466108,1.143445,1.818348
2024-08-20 11:38:04,-1.541459,-1.249614,-1.912888
2024-08-20 11:38:04,0.760116,-1.678682,-0.288401
2024-08-20 11:38:04,0.217706,1.282114,0.384858
2024-08-20 11:38:04,1.557178,-1.243986,-0.713906
2024-08-20 11:38:04,-1.764242,0.339461,-1.395833
2024-08-20 11:38:04,1.480104,-1.359695,1.702898
2024-08-20 11:38:04,0.69089,1.315077,1.911237
2024-08-20 11:38:04,-0.976741,1.63484,1.87819
2024-08-20 11:38:04,1.297774,1.128529,-1.477064
2024-08-20 11:38:05,1.6781,-0.868298,0.76289
2024-08-20 11:38:05,-1.41254,0.252125,1.950028
2024-08-20 11:38:05,-1.450141,-0.305497,1.167284
2024-08-20 11:38:05,1.961841,0.872658,-0.954579
2024-08-20 11:38:05,-0.456491,1.321795,-1.051715
2024-08-20 11:38:05,-1.094694,-0.573194,1.896219
2024-08-20 11:38:05,-0.611664,1.169463,0.489105
2024-08-20 11:38:05,1.663627,1.282743,0.112481
2024-08-20 11:38:05,-0.794464,-1.284369,1.604224
2024-08-20 11:38:05,-0.668944,-0.672521,0.038579
2024-08-20 11:38:06,-0.440761,0.944811,0.272974
2024-08-20 11:38:06,1.243093,0.442325,-0.806923
2024-08-20 11:38:06,-1.945756,-0.83942,1.450697
2024-08-20 11:38:06,-0.194546,-0.542765,0.530786
2024-08-20 11:38:06,-1.720588,-1.670026,-1.022934
2024-08-20 11:38:06,1.516272,0.107831,-1.693257
2024-08-20 11:38:06,0.981021,0.14284,1.097636
2024-08-20 11:38:06,-1.754838,-1.768583,1.88972
2024-08-20 11:38:06,-1.356681,1.213101,1.296126
2024-08-20 11:38:06,-1.52599,-1.160984,-1.629104
2024-08-20 11:38:07,-1.461758,0.350051,-0.896925
2024-08-20 11:38:07,-0.782927,-1.368213,1.919591
2024-08-20 11:38:07,-1.386633,1.949334,-0.007691
2024-08-20 11:38:07,1.184805,-1.233352,-1.512302
2024-08-20 11:38:07,-0.340797,-1.829237,0.781538
2024-08-20 11:38:07,-0.80515,0.626803,-0.41498
2024-08-20 11:38:07,-0.455281,-1.987505,-1.261763
2024-08-20 11:38:07,-1.810729,0.677007,-1.599413
2024-08-20 11:38:07,0.175846,-1.377806,1.251861
2024-08-20 11:38:08,0.752684,0.641596,0.522024
2024-08-20 11:38:08,-1.179062,-1.228021,1.512781
2024-08-20 11:38:08,0.605242,1.229699,-1.327536
2024-08-20 11:38:08,-0.42975,0.126835,1.536694
2024-08-20 11:38:08,-1.155474,0.1389,0.407766
2024-08-20 11:38:08,0.914228,0.274668,-0.570694
2024-08-20 11:38:08,0.684714,0.428494,-0.711142
2024-08-20 11:38:08,1.290192,1.552062,-0.364982
2024-08-20 11:38:08,-0.293543,1.273008,-1.61015
2024-08-20 11:38:08,-1.621776,-0.206745,0.155237
2024-08-20 11:38:09,0.822916,-1.408375,-1.40046
2024-08-20 11:38:09,-0.644535,-0.709435,1.877458
2024-08-20 11:38:09,0.596345,0.86363,1.3918
2024-08-20 11:38:09,-0.028568,-0.277308,0.243118
2024-08-20 11:38:09,1.859384,0.612805,0.063855
2024-08-20 11:38:09,0.905959,0.350717,-1.162974
2024-08-20 11:38:09,-1.170617,-1.391301,-1.902319
2024-08-20 11:38:09,1.238273,1.872105,-1.56103
2024-08-20 11:38:09,1.09787,0.512853,1.829897
2024-08-20 11:38:10,0.176759,-0.293706,1.296609
2024-08-20 11:38:10,-0.052111,-1.791587,-1.223421
2024-08-20 11:38:10,0.93769,-1.316389,-1.867008
2024-08-20 11:38:10,-0.685315,0.18312,0.546886
2024-08-20 11:38:10,-1.74156,1.54406,-1.391871
2024-08-20 11:38:10,-1.552001,-0.200531,-0.036162
2024-08-20 11:38:10,1.086673,1.37104,-0.748516
2024-08-20 11:38:10,0.228674,1.519734,1.18847
2024-08-20 11:38:10,0.646692,0.034056,-1.076599
2024-08-20 11:38:10,0.510513,-0.019714,0.871238
2024-08-20 11:38:11,1.848394,-0.763529,0.704942
2024-08-20 11:38:11,1.025377,0.247837,1.486029
2024-08-20 11:38:11,0.742524,1.26343,1.390501
2024-08-20 11:38:11,-0.364799,1.826372,-1.271696
2024-08-20 11:38:11,0.162093,-0.509874,0.351704
2024-08-20 11:38:11,1.72714,1.605926,1.140351
2024-08-20 11:38:11,0.449902,0.810277,1.260906
2024-08-20 11:38:11,-1.634146,-0.363914,-0.511196
2024-08-20 11:38:11,1.082677,1.96245,1.458392
2024-08-20 11:38:12,-0.261579,0.650979,-1.813262
2024-08-20 11:38:12,0.478385,1.700403,-1.272497
2024-08-20 11:38:12,1.311747,-1.826449,-1.300009
2024-08-20 11:38:12,-1.695362,0.656356,-0.69316
2024-08-20 11:38:12,0.67166,0.207181,0.999525
2024-08-20 11:38:12,-1.983834,-0.793375,-1.241064
2024-08-20 11:38:12,0.981296,-1.812554,-1.902906
2024-08-20 11:38:12,1.561946,-0.49498,-0.545456
2024-08-20 11:38:12,-1.512573,-1.508468,-0.903232
2024-08-20 11:38:12,1.470886,-1.714296,0.473231
2024-08-20 11:38:13,-1.253361,0.482472,-1.721374
2024-08-20 11:38:13,1.462805,1.363828,1.451663
2024-08-20 11:38:13,-1.366806,-0.125805,-0.476247
2024-08-20 11:38:13,0.005556,0.487118,-1.222689
2024-08-20 11:38:13,1.877439,-1.228599,1.900469
2024-08-20 11:38:13,1.329344,-0.654127,0.911774
2024-08-20 11:38:13,0.986829,1.562898,-0.305499
2024-08-20 11:38:13,-1.824904,1.578008,0.422448
2024-08-20 11:38:13,1.821495,-1.164287,0.392716
2024-08-20 11:38:13,-0.296148,0.24602,0.717168
2024-08-20 11:38:14,-0.917221,-0.946124,-0.504509
2024-08-20 11:38:14,0.457392,-1.725542,0.780695
2024-08-20 11:38:14,-0.360387,0.9964,0.335006
2024-08-20 11:38:14,-1.481487,-1.934591,-0.04299
2024-08-20 11:38:14,-1.746629,-0.797772,-0.864783
2024-08-20 11:38:14,-0.011774,-1.716116,1.120839
2024-08-20 11:38:14,-1.517598,0.964111,0.026374
2024-08-20 11:38:14,1.525833,1.618648,0.160864
2024-08-20 11:38:14,0.096546,-1.942012,0.694822
2024-08-20 11:38:15,-0.04534,-0.792533,-0.457263
2024-08-20 11:38:15,-1.257464,-1.098594,-0.276828
2024-08-20 11:38:15,0.388996,-0.035504,-1.568288
2024-08-20 11:38:15,-0.486209,0.05944,1.446877
2024-08-20 11:38:15,-0.1662,0.676088,1.820584
2024-08-20 11:38:15,0.438163,-1.274483,0.639302
2024-08-20 11:38:15,-0.888373,1.810323,-0.023722
2024-08-20 11:38:15,-1.818257,1.996735,-1.60202
2024-08-20 11:38:15,1.497748,1.884364,0.543287
2024-08-20 11:38:15,-0.424867,-0.486246,-0.517418
2024-08-20 11:38:16,0.584035,-0.555971,-0.388833
2024-08-20 11:38:16,1.628963,-0.844676,0.413239
2024-08-20 11:38:16,-1.777806,1.295225,1.837609
2024-08-20 11:38:16,-1.022442,1.08139,1.545146
2024-08-20 11:38:16,0.331875,0.142006,0.086779
2024-08-20 11:38:16,-1.912668,0.56559,-1.239758
2024-08-20 11:38:16,-1.05344,-0.432708,0.404052
2024-08-20 11:38:16,-1.835916,1.450959,-0.728781
2024-08-20 11:38:16,1.020586,0.226782,0.279214
2024-08-20 11:38:17,0.161121,1.377033,-1.282535
2024-08-20 11:38:17,-0.279231,-1.506034,1.106404
2024-08-20 11:38:17,1.665211,0.988389,-1.248468
2024-08-20 11:38:17,-0.471133,-1.425103,-0.725064
2024-08-20 11:38:17,-1.165237,1.191056,1.369179
2024-08-20 11:38:17,-0.529823,0.59669,-0.990742
2024-08-20 11:38:17,-0.602103,-0.815666,0.283126
2024-08-20 11:38:17,0.422845,-0.874308,-0.732603
2024-08-20 11:38:17,1.649601,-1.950159,-0.587815
2024-08-20 11:38:17,0.575072,-1.920341,-0.016333
2024-08-20 11:38:18,1.384921,-0.541588,1.768699
2024-08-20 11:38:18,0.197444,1.266285,0.716369
2024-08-20 11:38:18,0.583752,-0.095747,-0.591086
2024-08-20 11:38:18,1.86872,-1.567261,-0.184348
2024-08-20 11:38:18,-1.290817,-1.769041,0.837393
2024-08-20 11:38:18,-1.539635,-0.385942,1.785428
2024-08-20 11:38:18,-0.129867,-0.411139,0.429108
2024-08-20 11:38:18,-1.079352,0.382475,-1.135211
2024-08-20 11:38:18,-1.890618,-0.020441,0.665922
2024-08-20 11:38:18,1.009181,-0.894908,-1.577423
2024-08-20 11:38:19,-0.093699,-0.954581,1.210869
2024-08-20 11:38:19,0.247783,1.282484,-0.068123
2024-08-20 11:38:19,-1.22601,-0.145929,1.302393
2024-08-20 11:38:19,-1.971044,-0.29393,0.828963
2024-08-20 11:38:19,1.036882,0.480535,-1.569907
2024-08-20 11:38:19,1.738944,1.903341,-1.745465
2024-08-20 11:38:19,-1.407024,0.492701,0.679903
2024-08-20 11:38:19,1.392737,-0.052335,0.477613
2024-08-20 11:38:19,0.021231,-0.53715,-1.035915
2024-08-20 11:38:20,-1.007107,1.056387,-0.547827
2024-08-20 11:38:20,0.944197,-0.596871,1.789668
2024-08-20 11:38:20,1.742255,0.155901,-0.291958
2024-08-20 11:38:20,-0.146823,0.869909,-1.848947
2024-08-20 11:38:20,0.031419,-0.191048,-0.765604
2024-08-20 11:38:20,-0.968879,-0.274244,-0.014225
2024-08-20 11:38:20,-0.786941,1.015979,1.645834
2024-08-20 11:38:20,1.460446,0.897072,-1.825435
2024-08-20 11:38:20,0.530825,-0.221246,-1.95514
2024-08-20 11:38:20,0.004821,-0.822263,-0.016521
2024-08-20 11:38:21,1.649873,-0.40565,-1.900697
2024-08-20 11:38:21,0.76318,-1.839958,-0.557662
2024-08-20 11:38:21,0.049822,0.250128,-1.495346
2024-08-20 11:38:21,1.325389,-0.093839,-0.112397
2024-08-20 11:38:21,-1.73064,1.416515,-1.332306
2024-08-20 11:38:21,-0.217324,-1.589947,-1.426636
2024-08-20 11:38:21,-0.402557,0.420417,1.931822
2024-08-20 11:38:21,-1.87146,0.240269,0.095081
2024-08-20 11:38:21,-0.211728,0.528672,0.999317
2024-08-20 11:38:22,-1.094259,-0.635445,-0.399193
2024-08-20 11:38:22,1.188584,0.628083,-1.908073
2024-08-20 11:38:22,1.281437,-0.214233,0.048843
2024-08-20 11:38:22,0.59116,-0.313085,-1.877254
2024-08-20 11:38:22,0.506504,0.457357,-1.914039
2024-08-20 11:38:22,-0.612474,0.651424,1.250257
2024-08-20 11:38:22,-1.372142,1.192691,-0.910463
2024-08-20 11:38:22,-1.323187,0.965928,0.787558
2024-08-20 11:38:22,-0.599295,-0.329805,0.726799
2024-08-20 11:38:22,1.215015,-0.199807,-0.426636
2024-08-20 11:38:23,-1.830605,-0.714622,0.823185
2024-08-20 11:38:23,0.939917,-1.848128,1.933676
2024-08-20 11:38:23,-1.354469,1.641005,-1.831873
2024-08-20 11:38:23,1.260645,-1.582765,-1.529795
2024-08-20 11:38:23,-0.960479,0.744876,1.757453
2024-08-20 11:38:23,-0.008562,-1.66266,1.854689
2024-08-20 11:38:23,0.918022,0.701011,-1.136458
2024-08-20 11:38:23,-0.951178,1.764261,1.72883
2024-08-20 11:38:23,-1.562808,-0.779895,-0.176624
2024-08-20 11:38:24,1.300219,0.571653,-0.9379
2024-08-20 11:38:24,-1.644136,1.866223,-0.157643
2024-08-20 11:38:24,0.29793,1.629508,-1.851634
2024-08-20 11:38:24,-1.170641,0.033234,-1.302395
2024-08-20 11:38:24,1.028942,0.192947,0.028108
2024-08-20 11:38:24,-1.770734,-0.982763,1.917443
2024-08-20 11:38:24,0.898451,1.991228,-0.139961
2024-08-20 11:38:24,-0.680924,-0.650324,0.731559
2024-08-20 11:38:24,0.039543,-1.537418,-0.768673
2024-08-20 11:38:24,-1.494387,-1.673642,1.842502
2024-08-20 11:38:25,1.979223,0.200735,-0.099016
2024-08-20 11:38:25,-1.180415,-0.414636,0.765728
2024-08-20 11:38:25,-1.209743,-1.058579,-1.975359
2024-08-20 11:38:25,-0.814725,-1.928576,1.040921
2024-08-20 11:38:25,-1.096414,-1.841374,-1.920972
2024-08-20 11:38:25,-0.744169,-1.47967,-0.6911
2024-08-20 11:38:25,-0.052429,0.743364,-0.646483
2024-08-20 11:38:25,0.671472,1.622319,1.193961
2024-08-20 11:38:25,-1.081929,-1.25915,1.589705
2024-08-20 11:38:25,1.58656,0.176692,0.15598
2024-08-20 11:38:26,-0.660671,1.150219,-0.618546
2024-08-20 11:38:26,-1.758426,-0.53544,-0.213276
2024-08-20 11:38:26,-1.466894,1.482154,0.169286
2024-08-20 11:38:26,0.779032,1.777417,0.795057
2024-08-20 11:38:26,-1.918611,0.740258,-1.174705
2024-08-20 11:38:26,1.010235,-0.131158,-1.365995
2024-08-20 11:38:26,1.834016,-1.080665,-1.162434
2024-08-20 11:38:26,-0.696916,-1.753051,0.572404
2024-08-20 11:38:26,0.905995,-0.06781,0.077077
2024-08-20 11:38:27,-0.245008,-1.373774,-0.688055
2024-08-20 11:38:27,0.824124,1.789974,1.63942
2024-08-20 11:38:27,-1.623893,-0.737658,0.790555
2024-08-20 11:38:27,0.900101,0.02937,0.85357
2024-08-20 11:38:27,0.188339,0.727536,-1.22482
2024-08-20 11:38:27,0.509214,-1.101016,-0.88963
2024-08-20 11:38:27,1.275293,1.924644,-1.907618
2024-08-20 11:38:27,1.869269,-0.725779,0.363016
2024-08-20 11:38:27,-1.723663,-0.57815,0.046591
2024-08-20 11:38:27,-1.607248,-0.436832,-0.985582
2024-08-20 11:38:28,-0.571834,0.343688,-0.866515
2024-08-20 11:38:28,1.576419,0.22853,1.619308
2024-08-20 11:38:28,-0.974361,-0.556046,-1.101386
2024-08-20 11:38:28,-1.960262,0.416542,-1.472929
2024-08-20 11:38:28,-1.611529,1.252932,-0.820326
2024-08-20 11:38:28,-0.661196,-1.72212,1.115993
2024-08-20 11:38:28,1.344636,1.205248,0.270489
2024-08-20 11:38:28,-1.926217,-0.398911,1.02996
2024-08-20 11:38:28,-0.165387,-0.191789,-0.018847
2024-08-20 11:38:29,-1.563986,-0.832253,1.158509
2024-08-20 11:38:29,-0.868707,1.987176,-0.375995
2024-08-20 11:38:29,-0.728497,0.6805,-0.388957
2024-08-20 11:38:29,-1.920259,-0.446563,-0.203042
2024-08-20 11:38:29,1.655167,-0.430426,-1.184173
2024-08-20 11:38:29,1.655208,-0.939947,-0.764662
2024-08-20 11:38:29,-0.59595,0.583216,-1.330029
2024-08-20 11:38:29,-1.094099,-1.880657,1.051219
2024-08-20 11:38:29,-1.302879,-0.821811,-1.194127
2024-08-20 11:38:29,-0.222727,-1.956498,1.957925
2024-08-20 11:38:30,-0.975895,0.598775,1.391291
2024-08-20 11:38:30,-1.056674,-1.041795,-1.387796
2024-08-20 11:38:30,1.344271,1.321449,-0.085055
2024-08-20 11:38:30,-1.406593,1.424894,1.170438
2024-08-20 11:38:30,-0.77468,-1.640882,-0.15735
2024-08-20 11:38:30,-1.962168,0.09682,-1.069315
2024-08-20 11:38:30,-1.622354,0.100543,1.315399
2024-08-20 11:38:30,-1.267735,1.400022,1.701612
2024-08-20 11:38:30,-1.290958,1.528247,-1.511218
2024-08-20 11:38:30,1.744501,-1.217993,1.659299
2024-08-20 11:38:31,-1.091113,1.944203,1.866822
2024-08-20 11:38:31,-1.749857,-1.794172,-1.726729
2024-08-20 11:38:31,-0.68291,1.540622,-0.282796
2024-08-20 11:38:31,-0.264432,1.215593,-1.646026
2024-08-20 11:38:31,1.836709,0.463374,-1.263098
2024-08-20 11:38:31,-1.815917,0.947537,-1.446003
2024-08-20 11:38:31,-0.757114,0.154831,-0.391164
2024-08-20 11:38:31,1.578576,1.615984,1.584857
2024-08-20 11:38:31,1.435098,1.238701,0.948939
2024-08-20 11:38:32,1.280972,0.982441,-0.609091
2024-08-20 11:38:32,1.941024,0.639151,1.030519
2024-08-20 11:38:32,1.283198,0.838493,-1.193553
2024-08-20 11:38:32,-1.686964,-1.143755,1.839728
2024-08-20 11:38:32,0.485801,1.950979,1.819029
2024-08-20 11:38:32,0.506634,-0.753246,0.662114
2024-08-20 11:38:32,-0.786175,-0.797918,-0.520964
2024-08-20 11:38:32,-1.304979,-0.884418,-1.6629
2024-08-20 11:38:32,-0.888306,1.045768,0.378503
2024-08-20 11:38:32,-0.315264,-0.844847,-0.749979
2024-08-20 11:38:33,-0.783641,-0.937812,-1.430436
2024-08-20 11:38:33,-0.125051,1.072058,-1.723066
2024-08-20 11:38:33,1.766174,0.614722,1.890069
2024-08-20 11:38:33,0.61924,1.18689,0.492505
2024-08-20 11:38:33,-1.518739,1.3521,0.783084
2024-08-20 11:38:33,-1.47345,-1.661491,0.365077
2024-08-20 11:38:33,-0.545166,0.253583,1.325203
2024-08-20 11:38:33,0.136423,-1.382579,1.948243
2024-08-20 11:38:33,-0.746151,-0.234662,1.201443
2024-08-20 11:38:34,-1.595326,-0.331793,-1.672701
2024-08-20 11:38:34,1.724129,1.64556,-0.125588
2024-08-20 11:38:34,-1.798909,-0.01139,-0.484336
2024-08-20 11:38:34,-0.076675,-0.009782,-0.153333
2024-08-20 11:38:34,-0.30516,1.672015,-0.242065
2024-08-20 11:38:34,0.267113,-0.468277,-0.411514
2024-08-20 11:38:34,1.3865,-1.885531,1.772978
2024-08-20 11:38:34,0.557685,0.420962,-1.752389
2024-08-20 11:38:34,-0.800595,1.941088,-0.937148
2024-08-20 11:38:34,0.43169,1.655632,1.757278
2024-08-20 11:38:35,0.320685,1.902014,1.872784
2024-08-20 11:38:35,-1.603088,1.273846,0.378736
2024-08-20 11:38:35,-0.812501,1.474673,0.25472
2024-08-20 11:38:35,1.338443,-1.449176,1.325353
2024-08-20 11:38:35,0.380097,0.79286,-1.218488
2024-08-20 11:38:35,0.40407,1.123504,-1.306087
2024-08-20 11:38:35,0.206055,1.842709,0.028254
2024-08-20 11:38:35,0.084174,-1.397434,-1.949679
2024-08-20 11:38:35,1.208031,-1.54832,-1.462111
2024-08-20 11:38:35,-1.34376,0.963641,-1.277259
2024-08-20 11:38:36,-0.063556,-1.821902,-0.789103
2024-08-20 11:38:36,-1.137161,1.290131,1.129254
2024-08-20 11:38:36,-1.624437,0.79842,1.834396
2024-08-20 11:38:36,-0.491847,0.291223,1.122627
2024-08-20 11:38:36,1.530325,-1.739399,-0.250467
2024-08-20 11:38:36,-0.398764,0.926469,-1.226113
2024-08-20 11:38:36,-1.512709,-1.879793,-0.298069
2024-08-20 11:38:36,-1.11349,0.250766,0.727451
2024-08-20 11:38:36,0.463529,-1.740546,0.913747
2024-08-20 11:38:37,1.262894,-0.40588,-1.992464
2024-08-20 11:38:37,-1.508385,-0.128752,1.569409
2024-08-20 11:38:37,0.587115,-1.990905,1.515426
2024-08-20 11:38:37,-0.795275,0.090301,-1.851537
2024-08-20 11:38:37,0.565118,1.42612,0.369941
2024-08-20 11:38:37,-0.291181,0.112196,-1.047901
2024-08-20 11:38:37,0.937981,-0.960441,1.018991
2024-08-20 11:38:37,1.977198,-1.020314,-0.708455
2024-08-20 11:38:37,0.192605,1.223467,1.228171
2024-08-20 11:38:37,-1.523219,1.415191,-1.345205
2024-08-20 11:38:38,1.755991,-1.670186,-1.000844
2024-08-20 11:38:38,-1.938271,0.286161,1.607232
2024-08-20 11:38:38,0.6207,0.756029,-1.54358
2024-08-20 11:38:38,-1.731757,-0.52345,1.23208
2024-08-20 11:38:38,1.003402,-0.568468,0.99661
2024-08-20 11:38:38,-0.135768,-1.450401,-0.658079
2024-08-20 11:38:38,0.072522,-1.880483,1.104311
2024-08-20 11:38:38,-1.31501,-1.763371,-1.685334
2024-08-20 11:38:38,0.629662,1.96104,-1.864159
2024-08-20 11:38:39,-1.938955,0.823635,-1.649236
2024-08-20 11:38:39,1.242426,-1.988865,1.421255
2024-08-20 11:38:39,-1.495882,1.823664,-0.517954
2024-08-20 11:38:39,0.112508,0.202881,-1.716098
2024-08-20 11:38:39,1.180583,1.957099,0.462019
2024-08-20 11:38:39,-0.330055,-1.120308,-1.952924
2024-08-20 11:38:39,0.059817,1.680821,-1.598038
2024-08-20 11:38:39,0.403517,0.382911,-1.892368
2024-08-20 11:38:39,-1.709353,0.818137,1.39988
2024-08-20 11:38:39,-0.219881,-0.374555,-1.304333
2024-08-20 11:38:40,0.45397,0.665997,0.574808
2024-08-20 11:38:40,1.539401,-1.111455,1.069141
2024-08-20 11:38:40,1.410715,1.776066,-1.870274
2024-08-20 11:38:40,1.040797,-0.336748,1.542059
2024-08-20 11:38:40,-1.967646,1.921579,-1.889645
2024-08-20 11:38:40,-0.632759,0.465985,-1.871387
2024-08-20 11:38:40,0.962594,-1.668625,0.492201
2024-08-20 11:38:40,1.057391,0.977726,1.99769
2024-08-20 11:38:40,-1.163067,0.122383,-0.472862
2024-08-20 11:38:40,-0.747881,0.232978,-1.854862
2024-08-20 11:38:41,1.586549,-1.760275,0.371986
2024-08-20 11:38:41,1.985035,-0.386156,-0.496755
2024-08-20 11:38:41,1.877799,-1.922727,-1.535908
2024-08-20 11:38:41,-0.035756,0.975812,-0.307743
2024-08-20 11:38:41,-0.796592,-0.931849,-0.060716
2024-08-20 11:38:41,-1.429942,0.204104,1.813787
2024-08-20 11:38:41,1.791659,-0.237869,-1.732382
2024-08-20 11:38:41,0.282233,-0.278306,0.66202
2024-08-20 11:38:41,1.821656,-0.210825,-1.621092
2024-08-20 11:38:42,1.122675,1.339682,0.938507
2024-08-20 11:38:42,1.576196,-0.779761,-1.800951
2024-08-20 11:38:42,1.884886,-0.024723,1.388143
2024-08-20 11:38:42,0.265135,-0.957879,1.296177
2024-08-20 11:38:42,1.427799,1.621322,-1.829218
2024-08-20 11:38:42,1.977881,-0.016712,0.7772
2024-08-20 11:38:42,-1.499376,1.599225,-0.373646
2024-08-20 11:38:42,-1.658492,-0.752051,0.970529
2024-08-20 11:38:42,-1.578156,1.74641,-1.436556
2024-08-20 11:38:42,-0.626236,-0.633983,1.394951
2024-08-20 11:38:43,1.982501,-0.211148,-1.184713
2024-08-20 11:38:43,-1.19394,-1.526688,-1.273368
2024-08-20 11:38:43,-1.039586,-0.303051,-1.168421
2024-08-20 11:38:43,-0.687848,0.31812,0.871807
2024-08-20 11:38:43,-0.966758,1.374454,-0.545914
2024-08-20 11:38:43,-0.635423,-0.847398,0.698073
2024-08-20 11:38:43,0.226892,1.5787,0.250414
2024-08-20 11:38:43,0.295765,0.721858,-1.303328
2024-08-20 11:38:43,-0.16947,-1.270738,1.320843
2024-08-20 11:38:44,1.215978,0.402079,-0.573179
2024-08-20 11:38:44,0.018986,-0.839506,0.95783
2024-08-20 11:38:44,1.024181,0.667642,-0.496939
2024-08-20 11:38:44,0.73732,1.648707,0.376641
2024-08-20 11:38:44,0.669933,-0.365212,1.757772
2024-08-20 11:38:44,-1.623068,1.348853,-1.911048
2024-08-20 11:38:44,-0.009956,-0.93742,-0.995467
2024-08-20 11:38:44,-1.489573,-0.832032,1.847694
2024-08-20 11:38:44,-1.933993,-0.812335,-0.019614
2024-08-20 11:38:44,0.433648,1.335612,1.568986
2024-08-20 11:38:45,1.482212,1.720888,-0.568129
2024-08-20 11:38:45,-1.892008,-1.195062,-1.044565
2024-08-20 11:38:45,-0.192664,-0.249228,-0.116563
2024-08-20 11:38:45,-1.028189,-1.831533,1.393908
2024-08-20 11:38:45,-1.292833,-1.444766,0.266987
2024-08-20 11:38:45,-0.979538,0.235733,0.203282
2024-08-20 11:38:45,0.345392,0.972199,1.206067
2024-08-20 11:38:45,-0.326556,-0.585409,-0.476758
2024-08-20 11:38:45,0.577301,-1.825527,-0.691937
2024-08-20 11:38:45,-1.022554,-1.488856,1.945938
2024-08-20 11:38:46,0.355145,0.263053,1.656684
2024-08-20 11:38:46,-0.068732,-0.188127,-0.945822
2024-08-20 11:38:46,1.536828,0.858934,-0.567902
2024-08-20 11:38:46,-0.578193,0.243629,-0.517659
2024-08-20 11:38:46,-0.952391,0.212534,-1.106631
2024-08-20 11:38:46,-0.388402,0.354611,0.945339
2024-08-20 11:38:46,-1.482722,0.874521,1.706933
2024-08-20 11:38:46,0.543259,1.281117,0.501324
2024-08-20 11:38:46,1.055428,-0.695383,-1.925784
2024-08-20 11:38:47,1.570147,0.055513,-0.252979
2024-08-20 11:38:47,-1.687549,-1.752109,0.122161
2024-08-20 11:38:47,-1.870611,-0.687412,-1.233532
2024-08-20 11:38:47,-1.104437,-0.13812,-0.130801
2024-08-20 11:38:47,-1.743183,0.785649,-0.340191
2024-08-20 11:38:47,1.49503,0.727198,0.306438
2024-08-20 11:38:47,-1.184094,0.531871,-1.598872
2024-08-20 11:38:47,-1.363105,0.561161,-0.811506
2024-08-20 11:38:47,-0.798261,1.568946,-1.200272
2024-08-20 11:38:47,0.805396,-0.797613,-1.631134
2024-08-20 11:38:48,1.276646,-1.057803,-1.116328
2024-08-20 11:38:48,1.804093,0.479607,1.929688
2024-08-20 11:38:48,1.281131,0.572503,-0.082235
2024-08-20 11:38:48,-0.288554,-0.580582,-0.29199
2024-08-20 11:38:48,1.100045,0.869128,-0.87053
2024-08-20 11:38:48,-1.175425,-0.53638,-1.733074
2024-08-20 11:38:48,-0.616837,-0.011924,-1.291303
2024-08-20 11:38:48,-1.536071,-0.737878,1.523534
2024-08-20 11:38:48,1.265598,-0.243444,-1.561728
2024-08-20 11:38:49,-0.167622,0.492689,1.240949
2024-08-20 11:38:49,-1.813611,1.847669,-1.19641
2024-08-20 11:38:49,0.754153,-1.326283,1.480074
2024-08-20 11:38:49,-1.855269,0.151057,-1.072664
2024-08-20 11:38:49,1.901156,-1.832899,1.589586
2024-08-20 11:38:49,0.824503,1.44985,-0.250422
2024-08-20 11:38:49,0.529047,-1.140601,-1.16454
2024-08-20 11:38:49,0.976499,-1.543815,0.214313
2024-08-20 11:38:49,0.488186,-0.229874,-0.427898
2024-08-20 11:38:49,1.494166,-1.083213,1.56845
2024-08-20 11:38:50,-1.665725,-0.111095,0.014773
2024-08-20 11:38:50,-1.579944,0.035613,1.92008
2024-08-20 11:38:50,1.08567,0.186222,1.447658
2024-08-20 11:38:50,1.834307,-0.548389,-0.308742
2024-08-20 11:38:50,-1.328935,-1.550724,-1.377336
2024-08-20 11:38:50,-1.210609,1.123036,0.936316
2024-08-20 11:38:50,-1.828284,1.437158,0.191193
2024-08-20 11:38:50,0.514315,1.633055,-1.914053
2024-08-20 11:38:50,-1.904721,0.506401,0.087542
2024-08-20 11:38:51,0.770299,1.872993,0.615468
2024-08-20 11:38:51,-0.694731,0.358107,1.715295
2024-08-20 11:38:51,-1.516363,1.183627,-0.891315
2024-08-20 11:38:51,1.318488,1.912299,-0.19426
2024-08-20 11:38:51,0.109058,-1.685766,0.598356
2024-08-20 11:38:51,-0.8395,-0.487375,1.807085
2024-08-20 11:38:51,0.168949,-1.748733,0.270502
2024-08-20 11:38:51,1.894922,-0.739433,0.674164
2024-08-20 11:38:51,0.024311,-0.122557,0.735957
2024-08-20 11:38:51,-1.165426,-1.761304,1.778296
2024-08-20 11:38:52,1.35539,1.12021,-0.964052
2024-08-20 11:38:52,0.02993,-1.291549,-1.380224
2024-08-20 11:38:52,1.839157,0.15696,-0.494871
2024-08-20 11:38:52,-0.309915,0.823659,1.916521
2024-08-20 11:38:52,1.292292,-0.442902,-0.124526
2024-08-20 11:38:52,-0.794149,1.00036,-1.955633
2024-08-20 11:38:52,0.35454,0.036298,1.599967
2024-08-20 11:38:52,-1.386105,0.969457,-1.49104
2024-08-20 11:38:52,0.224744,-0.983646,-0.85755
2024-08-20 11:38:52,0.006143,1.384052,0.412344
2024-08-20 11:38:53,-0.493223,-0.812263,-0.890681
2024-08-20 11:38:53,-1.663467,1.747133,-1.173696
2024-08-20 11:38:53,0.274323,1.585397,1.736957
2024-08-20 11:38:53,0.126921,-0.267707,1.827302
2024-08-20 11:38:53,1.467506,0.488014,-1.031057
2024-08-20 11:38:53,1.359436,-0.967602,1.584205
2024-08-20 11:38:53,1.49907,-0.799989,-1.487517
2024-08-20 11:38:53,0.390521,-1.837167,-0.796749
2024-08-20 11:38:53,1.008563,-0.808811,-1.491075
2024-08-20 11:38:54,1.475612,1.836033,0.943184
2024-08-20 11:38:54,0.902084,1.016353,-0.196932
2024-08-20 11:38:54,-1.611001,-1.281634,-1.243687
2024-08-20 11:38:54,-0.795619,-1.634625,-0.719644
2024-08-20 11:38:54,1.94332,1.815648,-0.578591
2024-08-20 11:38:54,0.957981,-0.388808,0.499184
2024-08-20 11:38:54,0.521042,0.146174,0.247709
2024-08-20 11:38:54,-1.607356,0.663164,1.654556
2024-08-20 11:38:54,-0.231417,1.693668,1.185248
2024-08-20 11:38:54,1.780637,0.644189,0.636698
2024-08-20 11:38:55,-0.227755,1.316175,-0.835872
2024-08-20 11:38:55,-0.477676,0.600914,0.050758
2024-08-20 11:38:55,-0.338499,1.617284,1.468705
2024-08-20 11:38:55,-0.803602,-0.184918,0.965378
2024-08-20 11:38:55,1.30304,0.452266,-1.223434
2024-08-20 11:38:55,0.205333,-0.734679,1.963765
2024-08-20 11:38:55,-0.939833,1.572505,1.799709
2024-08-20 11:38:55,1.875603,-1.930625,1.142115
2024-08-20 11:38:55,0.46561,0.429662,0.421234
2024-08-20 11:38:56,0.815109,0.22844,-1.260668
2024-08-20 11:38:56,-1.477184,-1.907628,-0.205631
2024-08-20 11:38:56,0.360903,-1.41685,0.580027
2024-08-20 11:38:56,-0.661933,1.942333,-1.453918
2024-08-20 11:38:56,1.532751,-1.352672,-0.177072
2024-08-20 11:38:56,1.42901,-1.127717,-0.046106
2024-08-20 11:38:56,-0.560072,-0.319833,1.489756
2024-08-20 11:38:56,-0.666858,-1.263305,-1.731374
2024-08-20 11:38:56,-1.917078,-1.085313,1.62675
2024-08-20 11:38:56,-0.364379,-0.12411,0.988841
2024-08-20 11:38:57,-0.650823,-1.935243,-1.787365
2024-08-20 11:38:57,1.4988,1.693878,-0.711348
2024-08-20 11:38:57,1.930521,1.192139,-0.374305
2024-08-20 11:38:57,1.073717,1.174616,-1.797418
2024-08-20 11:38:57,0.702796,1.121244,0.641153
2024-08-20 11:38:57,0.210365,1.094678,-1.110859
2024-08-20 11:38:57,-1.498201,-1.578114,0.340836
2024-08-20 11:38:57,0.716728,-1.796411,-0.152183
2024-08-20 11:38:57,1.097441,-0.53949,-1.96806
2024-08-20 11:38:57,-1.61953,-1.426818,-0.133953
2024-08-20 11:38:58,0.966044,1.265157,0.61773
2024-08-20 11:38:58,-1.065977,-1.446423,0.950008
2024-08-20 11:38:58,0.183174,0.932128,1.399578
2024-08-20 11:38:58,-0.111029,-0.72612,1.408355
2024-08-20 11:38:58,-0.614515,-1.856133,1.224492
2024-08-20 11:38:58,-0.043462,-1.536996,0.921801
2024-08-20 11:38:58,1.693184,1.32909,1.963382
2024-08-20 11:38:58,-1.044268,-1.506747,0.935733
2024-08-20 11:38:58,-0.32523,0.556511,1.4022
2024-08-20 11:38:59,-1.153542,-1.368219,0.449598
2024-08-20 11:38:59,0.020885,0.069754,-1.274834
2024-08-20 11:38:59,0.902672,-1.8369,-1.631922
2024-08-20 11:38:59,0.60695,0.222576,-0.733615
2024-08-20 11:38:59,1.678237,-1.060742,1.483916
2024-08-20 11:38:59,1.238613,1.029721,-1.031146
2024-08-20 11:38:59,1.954612,-0.493852,0.889435
2024-08-20 11:38:59,1.244558,-1.307858,-1.053193
2024-08-20 11:38:59,0.845193,-1.973458,0.45879
2024-08-20 11:38:59,0.084045,1.121911,1.698984
2024-08-20 11:39:00,-1.559272,1.644461,-0.711827
2024-08-20 11:39:00,0.205987,0.099914,-0.529456
2024-08-20 11:39:00,-0.525617,-0.701238,1.182477
2024-08-20 11:39:00,-0.258211,-0.244977,1.535596
2024-08-20 11:39:00,1.539249,0.234638,-1.043841
2024-08-20 11:39:00,-0.015763,1.650143,1.045343
2024-08-20 11:39:00,-1.316869,-1.282426,1.001485
2024-08-20 11:39:00,-1.651969,-1.486326,-0.426446
2024-08-20 11:39:00,-1.980537,1.587627,-1.01832
2024-08-20 11:39:00,-0.740238,-1.479256,0.644258
2024-08-20 11:39:01,-0.324089,1.147502,0.594837
2024-08-20 11:39:01,0.803302,-1.211904,-1.497189
2024-08-20 11:39:01,-0.307952,-0.43562,-1.610699
2024-08-20 11:39:01,1.291591,-0.337098,0.247727
2024-08-20 11:39:01,1.623103,-0.175093,-0.690117
2024-08-20 11:39:01,1.967837,-0.383622,-0.560862
2024-08-20 11:39:01,-0.636434,0.992142,-0.645229
2024-08-20 11:39:01,1.947891,-0.71522,-0.594648
2024-08-20 11:39:01,-0.959053,0.279328,-0.20617
2024-08-20 11:39:02,-0.354833,1.158938,-1.112746
2024-08-20 11:39:02,-0.042181,-1.950959,0.696554
2024-08-20 11:39:02,-1.549491,0.764967,0.361012
2024-08-20 11:39:02,-0.467338,0.491586,1.698234
2024-08-20 11:39:02,0.826656,1.860993,-0.576749
2024-08-20 11:39:02,1.930724,-1.02852,-0.98653
2024-08-20 11:39:02,-1.056811,-0.947451,0.493775
2024-08-20 11:39:02,0.880961,-0.442604,-0.000463
2024-08-20 11:39:02,1.446149,-1.977447,-0.596769
2024-08-20 11:39:02,-1.782709,-1.843023,0.544674
2024-08-20 11:39:03,-0.80469,-1.846618,1.570314
2024-08-20 11:39:03,-1.93327,-0.298325,-0.742572
2024-08-20 11:39:03,0.842054,0.474595,0.71582
2024-08-20 11:39:03,-0.388933,0.288549,-0.001495
2024-08-20 11:39:03,0.772425,-1.536126,1.346602
2024-08-20 11:39:03,-1.612901,0.481758,0.820131
2024-08-20 11:39:03,-0.820087,1.579863,-1.702962
2024-08-20 11:39:03,-0.254305,1.83613,1.397126
2024-08-20 11:39:03,1.577421,1.881888,0.333192
2024-08-20 11:39:04,1.602025,0.3511,0.231008
2024-08-20 11:39:04,-1.99341,-1.363159,1.061943
2024-08-20 11:39:04,1.297403,-1.440584,-1.942873
2024-08-20 11:39:04,-0.363955,0.703354,0.974419
2024-08-20 11:39:04,0.292423,-0.873301,1.955744
2024-08-20 11:39:04,-1.452484,1.3468,-1.383403
2024-08-20 11:39:04,0.346834,-1.741147,0.76672
2024-08-20 11:39:04,1.2743,0.823766,0.944945
2024-08-20 11:39:04,-1.445422,-0.997085,-1.260426
2024-08-20 11:39:04,0.579451,1.034426,-0.049887
2024-08-20 11:39:05,0.687854,1.035249,0.240302
2024-08-20 11:39:05,1.030662,-1.349239,-0.441518
2024-08-20 11:39:05,-0.607177,1.051951,-0.669435
2024-08-20 11:39:05,0.748207,0.627494,1.504266
2024-08-20 11:39:05,0.248402,0.08675,-0.304722
2024-08-20 11:39:05,-1.043186,1.070081,-0.39597
2024-08-20 11:39:05,1.151081,0.961997,-1.827329
2024-08-20 11:39:05,0.163127,-1.404586,-0.685072
2024-08-20 11:39:05,0.855334,0.806542,-0.835311
2024-08-20 11:39:06,-0.430885,0.799776,-0.143748
2024-08-20 11:39:06,1.37222,-1.116053,-1.342284
2024-08-20 11:39:06,0.327836,0.08598,-1.661391
2024-08-20 11:39:06,-1.214036,0.9458,-1.362169
2024-08-20 11:39:06,-1.688893,0.811776,-1.29337
2024-08-20 11:39:06,0.267458,1.807935,1.373277
2024-08-20 11:39:06,1.382476,1.960849,1.284937
2024-08-20 11:39:06,0.648945,-0.077407,-1.219169
2024-08-20 11:39:06,-0.096113,0.631187,-0.912289
2024-08-20 11:39:06,-1.897679,-0.206536,0.948298
2024-08-20 11:39:07,-0.55834,1.298552,1.741624
2024-08-20 11:39:07,1.472712,0.433149,1.816137
2024-08-20 11:39:07,-1.133812,0.006515,-0.943579
2024-08-20 11:39:07,1.534318,-1.306682,-0.033906
2024-08-20 11:39:07,-0.921407,-0.890469,-0.232802
2024-08-20 11:39:07,1.767606,-0.241138,-1.167528
2024-08-20 11:39:07,-1.415122,-0.479056,-1.732853
2024-08-20 11:39:07,-0.296544,-1.185868,-0.032761
2024-08-20 11:39:07,0.633731,-1.391639,-0.414368
2024-08-20 11:39:07,0.645431,-0.333638,-0.748128
2024-08-20 11:39:08,1.52231,-0.830821,0.783338
2024-08-20 11:39:08,0.424393,0.468481,0.618659
2024-08-20 11:39:08,1.40868,-1.821913,1.211478
2024-08-20 11:39:08,-1.011814,0.37233,1.211853
2024-08-20 11:39:08,-0.79346,0.616659,1.297716
2024-08-20 11:39:08,1.821499,-1.246606,-0.449864
2024-08-20 11:39:08,1.766317,1.486313,-0.182474
2024-08-20 11:39:08,-1.748273,0.110133,0.122827
2024-08-20 11:39:08,-1.994763,0.182491,0.78532
2024-08-20 11:39:09,1.831771,0.165063,1.350417
2024-08-20 11:39:09,-1.663744,-0.971649,-1.107288
2024-08-20 11:39:09,-1.281824,-0.350592,-1.606861
2024-08-20 11:39:09,1.947057,1.629906,-1.624622
2024-08-20 11:39:09,-0.740965,-0.940418,-1.207003
2024-08-20 11:39:09,-0.980204,0.597584,1.816008
2024-08-20 11:39:09,-0.491509,1.329836,1.093539
2024-08-20 11:39:09,1.533648,-1.796015,1.559387
2024-08-20 11:39:09,-1.892258,-0.850687,1.627841
2024-08-20 11:39:09,0.493908,1.252215,0.871589
2024-08-20 11:39:10,-1.773649,-0.178534,0.049563
2024-08-20 11:39:10,1.963978,-0.726718,1.64785
2024-08-20 11:39:10,0.301274,0.55654,-0.088076
2024-08-20 11:39:10,0.456886,1.705254,0.838297
2024-08-20 11:39:10,0.798516,-1.718011,-1.422941
2024-08-20 11:39:10,-0.685264,-1.456358,-1.642273
2024-08-20 11:39:10,1.305617,-0.411923,-0.792148
2024-08-20 11:39:10,1.406171,0.533583,-0.514509
2024-08-20 11:39:10,1.777972,-1.302631,-1.481724
2024-08-20 11:39:11,-1.568819,-0.259112,1.451498
2024-08-20 11:39:11,1.414257,-1.474404,0.205665
2024-08-20 11:39:11,-1.499911,1.342126,-1.911375
2024-08-20 11:39:11,0.031603,0.055388,1.528889
2024-08-20 11:39:11,-0.780088,-0.253948,1.422582
2024-08-20 11:39:11,1.10656,-0.815406,-0.449409
2024-08-20 11:39:11,1.204822,-0.137268,-1.023723
2024-08-20 11:39:11,1.122229,-0.246953,1.151089
2024-08-20 11:39:11,-1.589973,-1.848021,-0.161743
2024-08-20 11:39:11,-1.509502,1.748189,0.106618
2024-08-20 11:39:12,1.482618,-1.258674,-1.193671
2024-08-20 11:39:12,1.634332,0.949278,0.520638
2024-08-20 11:39:12,-0.306565,1.191655,1.901343
2024-08-20 11:39:12,0.050913,1.172797,0.144705
2024-08-20 11:39:12,-1.067128,-0.244446,0.44773
2024-08-20 11:39:12,1.68471,-0.60327,-0.852695
2024-08-20 11:39:12,0.858191,-1.19347,1.607354
2024-08-20 11:39:12,-0.014092,-0.556524,-0.775288
2024-08-20 11:39:12,-0.535092,-0.064402,-1.255543
2024-08-20 11:39:12,-0.213732,0.820518,-1.388818
2024-08-20 11:39:13,-1.63308,1.342552,0.884874
2024-08-20 11:39:13,-0.285941,-0.241015,-0.341593
2024-08-20 11:39:13,0.610957,-0.329002,0.693012
2024-08-20 11:39:13,0.413167,-1.847089,1.960273
2024-08-20 11:39:13,0.526335,0.487105,0.68336
2024-08-20 11:39:13,1.619439,-0.252601,1.446982
2024-08-20 11:39:13,-0.179923,-0.224138,-1.757066
2024-08-20 11:39:13,-1.88832,1.250133,0.437725
2024-08-20 11:39:13,-0.206677,1.001357,-1.617838
